#
# Results on Sun, 17 Dec 2023 13:49:25 GMT
# USER AGENT: Mozilla/5.0 (X11; Linux x86_64) AppleWebKit/537.36 (KHTML, like Gecko) Chrome/111.0.0.0 Safari/537.36
# Design number was non-random = 4
#
# Columns below this comment are as follows:
# 1. Results reception time.
# 2. MD5 hash of participant's IP address.
# 3. Controller name.
# 4. Order number of item.
# 5. Inner element number.
# 6. Label.
# 7. Latin Square Group.
# 8. PennElementType.
# 9. PennElementName.
# 10. Parameter.
# 11. Value.
# 12. EventTime.
# 13. Comments.
1702820965,e3d45e4c08f4ffc30663f6a6e6e13135,PennController,0,0,instuction,NULL,PennController,0,_Trial_,Start,1702820669477,NULL
1702820965,e3d45e4c08f4ffc30663f6a6e6e13135,PennController,0,0,instuction,NULL,Scale,inputAgree,С инструкцией ознакомился(-лась)%2C согласие на обработку персональных данных даю.,checked,1702820678503,Status
1702820965,e3d45e4c08f4ffc30663f6a6e6e13135,PennController,0,0,instuction,NULL,Scale,inputAgree,Choice,С инструкцией ознакомился(-лась)%2C согласие на обработку персональных данных даю.,1702820677536,NULL
1702820965,e3d45e4c08f4ffc30663f6a6e6e13135,PennController,0,0,instuction,NULL,PennController,0,_Trial_,End,1702820678503,NULL
1702820965,e3d45e4c08f4ffc30663f6a6e6e13135,PennController,1,0,aboutinformant,NULL,PennController,1,_Trial_,Start,1702820678506,NULL
1702820965,e3d45e4c08f4ffc30663f6a6e6e13135,PennController,1,0,aboutinformant,NULL,Scale,inputGender,Мужчина,unchecked,1702820702498,Status
1702820965,e3d45e4c08f4ffc30663f6a6e6e13135,PennController,1,0,aboutinformant,NULL,Scale,inputGender,Женщина,checked,1702820702498,Status
1702820965,e3d45e4c08f4ffc30663f6a6e6e13135,PennController,1,0,aboutinformant,NULL,Scale,inputGender,Предпочитаю не указывать,unchecked,1702820702498,Status
1702820965,e3d45e4c08f4ffc30663f6a6e6e13135,PennController,1,0,aboutinformant,NULL,Scale,inputGender,Choice,Женщина,1702820681291,NULL
1702820965,e3d45e4c08f4ffc30663f6a6e6e13135,PennController,1,0,aboutinformant,NULL,TextInput,inputAge,Final,22,1702820702499,NULL
1702820965,e3d45e4c08f4ffc30663f6a6e6e13135,PennController,1,0,aboutinformant,NULL,TextInput,inputEducation,Final,высшее%2C 15,1702820702499,NULL
1702820965,e3d45e4c08f4ffc30663f6a6e6e13135,PennController,1,0,aboutinformant,NULL,PennController,1,_Trial_,End,1702820702499,NULL
# 13. Group.
# 14. Item.
# 15. Expected.
# 16. Comments.
1702820965,e3d45e4c08f4ffc30663f6a6e6e13135,PennController,7,0,experiment,NULL,PennController,8,_Trial_,Start,1702820702504,A,6,a2,NULL
1702820965,e3d45e4c08f4ffc30663f6a6e6e13135,PennController,7,0,experiment,NULL,Selector,answer,Selection,a2,1702820722185,A,6,a2,a1;a2;a3;a4
1702820965,e3d45e4c08f4ffc30663f6a6e6e13135,PennController,7,0,experiment,NULL,PennController,8,_Trial_,End,1702820722189,A,6,a2,NULL
1702820965,e3d45e4c08f4ffc30663f6a6e6e13135,PennController,2,0,experiment,NULL,PennController,3,_Trial_,Start,1702820722192,A,1,a3,NULL
1702820965,e3d45e4c08f4ffc30663f6a6e6e13135,PennController,2,0,experiment,NULL,Selector,answer,Selection,a2,1702820731216,A,1,a3,a1;a2;a3;a4
1702820965,e3d45e4c08f4ffc30663f6a6e6e13135,PennController,2,0,experiment,NULL,PennController,3,_Trial_,End,1702820731218,A,1,a3,NULL
1702820965,e3d45e4c08f4ffc30663f6a6e6e13135,PennController,11,0,experiment,NULL,PennController,12,_Trial_,Start,1702820731221,A,10,a1,NULL
1702820965,e3d45e4c08f4ffc30663f6a6e6e13135,PennController,11,0,experiment,NULL,Selector,answer,Selection,a1,1702820740079,A,10,a1,a1;a2;a3;a4
1702820965,e3d45e4c08f4ffc30663f6a6e6e13135,PennController,11,0,experiment,NULL,PennController,12,_Trial_,End,1702820740082,A,10,a1,NULL
1702820965,e3d45e4c08f4ffc30663f6a6e6e13135,PennController,22,0,experiment,NULL,PennController,23,_Trial_,Start,1702820740085,A,9,a1,NULL
1702820965,e3d45e4c08f4ffc30663f6a6e6e13135,PennController,22,0,experiment,NULL,Selector,answer,Selection,a1,1702820751046,A,9,a1,a1;a2;a3;a4
1702820965,e3d45e4c08f4ffc30663f6a6e6e13135,PennController,22,0,experiment,NULL,PennController,23,_Trial_,End,1702820751048,A,9,a1,NULL
1702820965,e3d45e4c08f4ffc30663f6a6e6e13135,PennController,20,0,experiment,NULL,PennController,21,_Trial_,Start,1702820751051,A,7,a1,NULL
1702820965,e3d45e4c08f4ffc30663f6a6e6e13135,PennController,20,0,experiment,NULL,Selector,answer,Selection,a1,1702820761359,A,7,a1,a1;a2;a3;a4
1702820965,e3d45e4c08f4ffc30663f6a6e6e13135,PennController,20,0,experiment,NULL,PennController,21,_Trial_,End,1702820761361,A,7,a1,NULL
1702820965,e3d45e4c08f4ffc30663f6a6e6e13135,PennController,16,0,experiment,NULL,PennController,17,_Trial_,Start,1702820761364,A,15,a1,NULL
1702820965,e3d45e4c08f4ffc30663f6a6e6e13135,PennController,16,0,experiment,NULL,Selector,answer,Selection,a1,1702820770820,A,15,a1,a1;a2;a3;a4
1702820965,e3d45e4c08f4ffc30663f6a6e6e13135,PennController,16,0,experiment,NULL,PennController,17,_Trial_,End,1702820770823,A,15,a1,NULL
1702820965,e3d45e4c08f4ffc30663f6a6e6e13135,PennController,23,0,experiment,NULL,PennController,24,_Trial_,Start,1702820770826,A,10,a1,NULL
1702820965,e3d45e4c08f4ffc30663f6a6e6e13135,PennController,23,0,experiment,NULL,Selector,answer,Selection,a1,1702820779550,A,10,a1,a1;a2;a3;a4
1702820965,e3d45e4c08f4ffc30663f6a6e6e13135,PennController,23,0,experiment,NULL,PennController,24,_Trial_,End,1702820779552,A,10,a1,NULL
1702820965,e3d45e4c08f4ffc30663f6a6e6e13135,PennController,8,0,experiment,NULL,PennController,9,_Trial_,Start,1702820779555,A,7,a1,NULL
1702820965,e3d45e4c08f4ffc30663f6a6e6e13135,PennController,8,0,experiment,NULL,Selector,answer,Selection,a1,1702820787028,A,7,a1,a1;a2;a3;a4
1702820965,e3d45e4c08f4ffc30663f6a6e6e13135,PennController,8,0,experiment,NULL,PennController,9,_Trial_,End,1702820787031,A,7,a1,NULL
1702820965,e3d45e4c08f4ffc30663f6a6e6e13135,PennController,12,0,experiment,NULL,PennController,13,_Trial_,Start,1702820787033,A,11,a3,NULL
1702820965,e3d45e4c08f4ffc30663f6a6e6e13135,PennController,12,0,experiment,NULL,Selector,answer,Selection,a3,1702820803063,A,11,a3,a1;a2;a3;a4
1702820965,e3d45e4c08f4ffc30663f6a6e6e13135,PennController,12,0,experiment,NULL,PennController,13,_Trial_,End,1702820803066,A,11,a3,NULL
1702820965,e3d45e4c08f4ffc30663f6a6e6e13135,PennController,14,0,experiment,NULL,PennController,15,_Trial_,Start,1702820803068,A,13,a3,NULL
1702820965,e3d45e4c08f4ffc30663f6a6e6e13135,PennController,14,0,experiment,NULL,Selector,answer,Selection,a3,1702820815872,A,13,a3,a1;a2;a3;a4
1702820965,e3d45e4c08f4ffc30663f6a6e6e13135,PennController,14,0,experiment,NULL,PennController,15,_Trial_,End,1702820815875,A,13,a3,NULL
1702820965,e3d45e4c08f4ffc30663f6a6e6e13135,PennController,17,0,experiment,NULL,PennController,18,_Trial_,Start,1702820815877,A,16,a1,NULL
1702820965,e3d45e4c08f4ffc30663f6a6e6e13135,PennController,17,0,experiment,NULL,Selector,answer,Selection,a1,1702820823709,A,16,a1,a1;a2;a3;a4
1702820965,e3d45e4c08f4ffc30663f6a6e6e13135,PennController,17,0,experiment,NULL,PennController,18,_Trial_,End,1702820823712,A,16,a1,NULL
1702820965,e3d45e4c08f4ffc30663f6a6e6e13135,PennController,13,0,experiment,NULL,PennController,14,_Trial_,Start,1702820823714,A,12,a4,NULL
1702820965,e3d45e4c08f4ffc30663f6a6e6e13135,PennController,13,0,experiment,NULL,Selector,answer,Selection,a4,1702820834050,A,12,a4,a1;a2;a3;a4
1702820965,e3d45e4c08f4ffc30663f6a6e6e13135,PennController,13,0,experiment,NULL,PennController,14,_Trial_,End,1702820834053,A,12,a4,NULL
1702820965,e3d45e4c08f4ffc30663f6a6e6e13135,PennController,21,0,experiment,NULL,PennController,22,_Trial_,Start,1702820834055,A,8,a4,NULL
1702820965,e3d45e4c08f4ffc30663f6a6e6e13135,PennController,21,0,experiment,NULL,Selector,answer,Selection,a4,1702820843552,A,8,a4,a1;a2;a3;a4
1702820965,e3d45e4c08f4ffc30663f6a6e6e13135,PennController,21,0,experiment,NULL,PennController,22,_Trial_,End,1702820843554,A,8,a4,NULL
1702820965,e3d45e4c08f4ffc30663f6a6e6e13135,PennController,4,0,experiment,NULL,PennController,5,_Trial_,Start,1702820843556,A,3,a1,NULL
1702820965,e3d45e4c08f4ffc30663f6a6e6e13135,PennController,4,0,experiment,NULL,Selector,answer,Selection,a1,1702820854297,A,3,a1,a1;a2;a3;a4
1702820965,e3d45e4c08f4ffc30663f6a6e6e13135,PennController,4,0,experiment,NULL,PennController,5,_Trial_,End,1702820854299,A,3,a1,NULL
1702820965,e3d45e4c08f4ffc30663f6a6e6e13135,PennController,19,0,experiment,NULL,PennController,20,_Trial_,Start,1702820854302,A,18,a1,NULL
1702820965,e3d45e4c08f4ffc30663f6a6e6e13135,PennController,19,0,experiment,NULL,Selector,answer,Selection,a1,1702820864068,A,18,a1,a1;a2;a3;a4
1702820965,e3d45e4c08f4ffc30663f6a6e6e13135,PennController,19,0,experiment,NULL,PennController,20,_Trial_,End,1702820864070,A,18,a1,NULL
1702820965,e3d45e4c08f4ffc30663f6a6e6e13135,PennController,5,0,experiment,NULL,PennController,6,_Trial_,Start,1702820864074,A,4,a1,NULL
1702820965,e3d45e4c08f4ffc30663f6a6e6e13135,PennController,5,0,experiment,NULL,Selector,answer,Selection,a3,1702820878291,A,4,a1,a1;a2;a3;a4
1702820965,e3d45e4c08f4ffc30663f6a6e6e13135,PennController,5,0,experiment,NULL,PennController,6,_Trial_,End,1702820878294,A,4,a1,NULL
1702820965,e3d45e4c08f4ffc30663f6a6e6e13135,PennController,10,0,experiment,NULL,PennController,11,_Trial_,Start,1702820878296,A,9,a1,NULL
1702820965,e3d45e4c08f4ffc30663f6a6e6e13135,PennController,10,0,experiment,NULL,Selector,answer,Selection,a1,1702820887078,A,9,a1,a1;a2;a3;a4
1702820965,e3d45e4c08f4ffc30663f6a6e6e13135,PennController,10,0,experiment,NULL,PennController,11,_Trial_,End,1702820887081,A,9,a1,NULL
1702820965,e3d45e4c08f4ffc30663f6a6e6e13135,PennController,9,0,experiment,NULL,PennController,10,_Trial_,Start,1702820887084,A,8,a4,NULL
1702820965,e3d45e4c08f4ffc30663f6a6e6e13135,PennController,9,0,experiment,NULL,Selector,answer,Selection,a4,1702820894894,A,8,a4,a1;a2;a3;a4
1702820965,e3d45e4c08f4ffc30663f6a6e6e13135,PennController,9,0,experiment,NULL,PennController,10,_Trial_,End,1702820894896,A,8,a4,NULL
1702820965,e3d45e4c08f4ffc30663f6a6e6e13135,PennController,6,0,experiment,NULL,PennController,7,_Trial_,Start,1702820894900,A,5,a2,NULL
1702820965,e3d45e4c08f4ffc30663f6a6e6e13135,PennController,6,0,experiment,NULL,Selector,answer,Selection,a2,1702820908309,A,5,a2,a1;a2;a3;a4
1702820965,e3d45e4c08f4ffc30663f6a6e6e13135,PennController,6,0,experiment,NULL,PennController,7,_Trial_,End,1702820908312,A,5,a2,NULL
1702820965,e3d45e4c08f4ffc30663f6a6e6e13135,PennController,24,0,experiment,NULL,PennController,25,_Trial_,Start,1702820908314,A,11,a3,NULL
1702820965,e3d45e4c08f4ffc30663f6a6e6e13135,PennController,24,0,experiment,NULL,Selector,answer,Selection,a3,1702820916933,A,11,a3,a1;a2;a3;a4
1702820965,e3d45e4c08f4ffc30663f6a6e6e13135,PennController,24,0,experiment,NULL,PennController,25,_Trial_,End,1702820916936,A,11,a3,NULL
1702820965,e3d45e4c08f4ffc30663f6a6e6e13135,PennController,15,0,experiment,NULL,PennController,16,_Trial_,Start,1702820916938,A,14,a4,NULL
1702820965,e3d45e4c08f4ffc30663f6a6e6e13135,PennController,15,0,experiment,NULL,Selector,answer,Selection,a4,1702820926382,A,14,a4,a1;a2;a3;a4
1702820965,e3d45e4c08f4ffc30663f6a6e6e13135,PennController,15,0,experiment,NULL,PennController,16,_Trial_,End,1702820926384,A,14,a4,NULL
1702820965,e3d45e4c08f4ffc30663f6a6e6e13135,PennController,3,0,experiment,NULL,PennController,4,_Trial_,Start,1702820926388,A,2,a3,NULL
1702820965,e3d45e4c08f4ffc30663f6a6e6e13135,PennController,3,0,experiment,NULL,Selector,answer,Selection,a2,1702820934880,A,2,a3,a1;a2;a3;a4
1702820965,e3d45e4c08f4ffc30663f6a6e6e13135,PennController,3,0,experiment,NULL,PennController,4,_Trial_,End,1702820934883,A,2,a3,NULL
1702820965,e3d45e4c08f4ffc30663f6a6e6e13135,PennController,25,0,experiment,NULL,PennController,26,_Trial_,Start,1702820934885,A,12,a4,NULL
1702820965,e3d45e4c08f4ffc30663f6a6e6e13135,PennController,25,0,experiment,NULL,Selector,answer,Selection,a4,1702820943484,A,12,a4,a1;a2;a3;a4
1702820965,e3d45e4c08f4ffc30663f6a6e6e13135,PennController,25,0,experiment,NULL,PennController,26,_Trial_,End,1702820943486,A,12,a4,NULL
1702820965,e3d45e4c08f4ffc30663f6a6e6e13135,PennController,26,0,experiment,NULL,PennController,27,_Trial_,Start,1702820943489,A,13,a3,NULL
1702820965,e3d45e4c08f4ffc30663f6a6e6e13135,PennController,26,0,experiment,NULL,Selector,answer,Selection,a3,1702820952925,A,13,a3,a1;a2;a3;a4
1702820965,e3d45e4c08f4ffc30663f6a6e6e13135,PennController,26,0,experiment,NULL,PennController,27,_Trial_,End,1702820952929,A,13,a3,NULL
1702820965,e3d45e4c08f4ffc30663f6a6e6e13135,PennController,18,0,experiment,NULL,PennController,19,_Trial_,Start,1702820952931,A,17,a3,NULL
1702820965,e3d45e4c08f4ffc30663f6a6e6e13135,PennController,18,0,experiment,NULL,Selector,answer,Selection,a3,1702820964808,A,17,a3,a1;a2;a3;a4
1702820965,e3d45e4c08f4ffc30663f6a6e6e13135,PennController,18,0,experiment,NULL,PennController,19,_Trial_,End,1702820964811,A,17,a3,NULL
#
# Results on Sun, 17 Dec 2023 13:53:36 GMT
# USER AGENT: Mozilla/5.0 (Windows NT 10.0; Win64; x64) AppleWebKit/537.36 (KHTML, like Gecko) Chrome/119.0.0.0 Safari/537.36 OPR/105.0.0.0 (Edition Yx 03)
# Design number was non-random = 4
#
# Columns below this comment are as follows:
# 1. Results reception time.
# 2. MD5 hash of participant's IP address.
# 3. Controller name.
# 4. Order number of item.
# 5. Inner element number.
# 6. Label.
# 7. Latin Square Group.
# 8. PennElementType.
# 9. PennElementName.
# 10. Parameter.
# 11. Value.
# 12. EventTime.
# 13. Comments.
1702821216,58a0a04924685ea409209bb398c138b4,PennController,0,0,instuction,NULL,PennController,0,_Trial_,Start,1702820921880,NULL
1702821216,58a0a04924685ea409209bb398c138b4,PennController,0,0,instuction,NULL,Scale,inputAgree,С инструкцией ознакомился(-лась)%2C согласие на обработку персональных данных даю.,checked,1702820929631,Status
1702821216,58a0a04924685ea409209bb398c138b4,PennController,0,0,instuction,NULL,Scale,inputAgree,Choice,С инструкцией ознакомился(-лась)%2C согласие на обработку персональных данных даю.,1702820926371,NULL
1702821216,58a0a04924685ea409209bb398c138b4,PennController,0,0,instuction,NULL,PennController,0,_Trial_,End,1702820929631,NULL
1702821216,58a0a04924685ea409209bb398c138b4,PennController,1,0,aboutinformant,NULL,PennController,1,_Trial_,Start,1702820929633,NULL
1702821216,58a0a04924685ea409209bb398c138b4,PennController,1,0,aboutinformant,NULL,Scale,inputGender,Мужчина,unchecked,1702820953172,Status
1702821216,58a0a04924685ea409209bb398c138b4,PennController,1,0,aboutinformant,NULL,Scale,inputGender,Женщина,checked,1702820953172,Status
1702821216,58a0a04924685ea409209bb398c138b4,PennController,1,0,aboutinformant,NULL,Scale,inputGender,Предпочитаю не указывать,unchecked,1702820953173,Status
1702821216,58a0a04924685ea409209bb398c138b4,PennController,1,0,aboutinformant,NULL,Scale,inputGender,Choice,Женщина,1702820931554,NULL
1702821216,58a0a04924685ea409209bb398c138b4,PennController,1,0,aboutinformant,NULL,TextInput,inputAge,Final,18,1702820953173,NULL
1702821216,58a0a04924685ea409209bb398c138b4,PennController,1,0,aboutinformant,NULL,TextInput,inputEducation,Final,неоконченное высшее%2C 13,1702820953173,NULL
1702821216,58a0a04924685ea409209bb398c138b4,PennController,1,0,aboutinformant,NULL,PennController,1,_Trial_,End,1702820953173,NULL
# 13. Group.
# 14. Item.
# 15. Expected.
# 16. Comments.
1702821216,58a0a04924685ea409209bb398c138b4,PennController,9,0,experiment,NULL,PennController,10,_Trial_,Start,1702820953175,A,8,a4,NULL
1702821216,58a0a04924685ea409209bb398c138b4,PennController,9,0,experiment,NULL,Selector,answer,Selection,a4,1702820968548,A,8,a4,a1;a2;a3;a4
1702821216,58a0a04924685ea409209bb398c138b4,PennController,9,0,experiment,NULL,PennController,10,_Trial_,End,1702820968550,A,8,a4,NULL
1702821216,58a0a04924685ea409209bb398c138b4,PennController,10,0,experiment,NULL,PennController,11,_Trial_,Start,1702820968551,A,9,a1,NULL
1702821216,58a0a04924685ea409209bb398c138b4,PennController,10,0,experiment,NULL,Selector,answer,Selection,a3,1702820987254,A,9,a1,a1;a2;a3;a4
1702821216,58a0a04924685ea409209bb398c138b4,PennController,10,0,experiment,NULL,PennController,11,_Trial_,End,1702820987256,A,9,a1,NULL
1702821216,58a0a04924685ea409209bb398c138b4,PennController,22,0,experiment,NULL,PennController,23,_Trial_,Start,1702820987257,A,9,a1,NULL
1702821216,58a0a04924685ea409209bb398c138b4,PennController,22,0,experiment,NULL,Selector,answer,Selection,a3,1702821000802,A,9,a1,a1;a2;a3;a4
1702821216,58a0a04924685ea409209bb398c138b4,PennController,22,0,experiment,NULL,PennController,23,_Trial_,End,1702821000804,A,9,a1,NULL
1702821216,58a0a04924685ea409209bb398c138b4,PennController,12,0,experiment,NULL,PennController,13,_Trial_,Start,1702821000805,A,11,a3,NULL
1702821216,58a0a04924685ea409209bb398c138b4,PennController,12,0,experiment,NULL,Selector,answer,Selection,a3,1702821011904,A,11,a3,a1;a2;a3;a4
1702821216,58a0a04924685ea409209bb398c138b4,PennController,12,0,experiment,NULL,PennController,13,_Trial_,End,1702821011904,A,11,a3,NULL
1702821216,58a0a04924685ea409209bb398c138b4,PennController,13,0,experiment,NULL,PennController,14,_Trial_,Start,1702821011905,A,12,a4,NULL
1702821216,58a0a04924685ea409209bb398c138b4,PennController,13,0,experiment,NULL,Selector,answer,Selection,a4,1702821022448,A,12,a4,a1;a2;a3;a4
1702821216,58a0a04924685ea409209bb398c138b4,PennController,13,0,experiment,NULL,PennController,14,_Trial_,End,1702821022449,A,12,a4,NULL
1702821216,58a0a04924685ea409209bb398c138b4,PennController,25,0,experiment,NULL,PennController,26,_Trial_,Start,1702821022450,A,12,a4,NULL
1702821216,58a0a04924685ea409209bb398c138b4,PennController,25,0,experiment,NULL,Selector,answer,Selection,a4,1702821032143,A,12,a4,a1;a2;a3;a4
1702821216,58a0a04924685ea409209bb398c138b4,PennController,25,0,experiment,NULL,PennController,26,_Trial_,End,1702821032144,A,12,a4,NULL
1702821216,58a0a04924685ea409209bb398c138b4,PennController,18,0,experiment,NULL,PennController,19,_Trial_,Start,1702821032146,A,17,a3,NULL
1702821216,58a0a04924685ea409209bb398c138b4,PennController,18,0,experiment,NULL,Selector,answer,Selection,a3,1702821041976,A,17,a3,a1;a2;a3;a4
1702821216,58a0a04924685ea409209bb398c138b4,PennController,18,0,experiment,NULL,PennController,19,_Trial_,End,1702821041977,A,17,a3,NULL
1702821216,58a0a04924685ea409209bb398c138b4,PennController,4,0,experiment,NULL,PennController,5,_Trial_,Start,1702821041977,A,3,a1,NULL
1702821216,58a0a04924685ea409209bb398c138b4,PennController,4,0,experiment,NULL,Selector,answer,Selection,a1,1702821051889,A,3,a1,a1;a2;a3;a4
1702821216,58a0a04924685ea409209bb398c138b4,PennController,4,0,experiment,NULL,PennController,5,_Trial_,End,1702821051890,A,3,a1,NULL
1702821216,58a0a04924685ea409209bb398c138b4,PennController,17,0,experiment,NULL,PennController,18,_Trial_,Start,1702821051891,A,16,a1,NULL
1702821216,58a0a04924685ea409209bb398c138b4,PennController,17,0,experiment,NULL,Selector,answer,Selection,a1,1702821060217,A,16,a1,a1;a2;a3;a4
1702821216,58a0a04924685ea409209bb398c138b4,PennController,17,0,experiment,NULL,PennController,18,_Trial_,End,1702821060218,A,16,a1,NULL
1702821216,58a0a04924685ea409209bb398c138b4,PennController,15,0,experiment,NULL,PennController,16,_Trial_,Start,1702821060219,A,14,a4,NULL
1702821216,58a0a04924685ea409209bb398c138b4,PennController,15,0,experiment,NULL,Selector,answer,Selection,a2,1702821074869,A,14,a4,a1;a2;a3;a4
1702821216,58a0a04924685ea409209bb398c138b4,PennController,15,0,experiment,NULL,PennController,16,_Trial_,End,1702821074870,A,14,a4,NULL
1702821216,58a0a04924685ea409209bb398c138b4,PennController,11,0,experiment,NULL,PennController,12,_Trial_,Start,1702821074871,A,10,a1,NULL
1702821216,58a0a04924685ea409209bb398c138b4,PennController,11,0,experiment,NULL,Selector,answer,Selection,a1,1702821084052,A,10,a1,a1;a2;a3;a4
1702821216,58a0a04924685ea409209bb398c138b4,PennController,11,0,experiment,NULL,PennController,12,_Trial_,End,1702821084052,A,10,a1,NULL
1702821216,58a0a04924685ea409209bb398c138b4,PennController,6,0,experiment,NULL,PennController,7,_Trial_,Start,1702821084053,A,5,a2,NULL
1702821216,58a0a04924685ea409209bb398c138b4,PennController,6,0,experiment,NULL,Selector,answer,Selection,a2,1702821092070,A,5,a2,a1;a2;a3;a4
1702821216,58a0a04924685ea409209bb398c138b4,PennController,6,0,experiment,NULL,PennController,7,_Trial_,End,1702821092072,A,5,a2,NULL
1702821216,58a0a04924685ea409209bb398c138b4,PennController,24,0,experiment,NULL,PennController,25,_Trial_,Start,1702821092073,A,11,a3,NULL
1702821216,58a0a04924685ea409209bb398c138b4,PennController,24,0,experiment,NULL,Selector,answer,Selection,a3,1702821100805,A,11,a3,a1;a2;a3;a4
1702821216,58a0a04924685ea409209bb398c138b4,PennController,24,0,experiment,NULL,PennController,25,_Trial_,End,1702821100806,A,11,a3,NULL
1702821216,58a0a04924685ea409209bb398c138b4,PennController,19,0,experiment,NULL,PennController,20,_Trial_,Start,1702821100807,A,18,a1,NULL
1702821216,58a0a04924685ea409209bb398c138b4,PennController,19,0,experiment,NULL,Selector,answer,Selection,a1,1702821109900,A,18,a1,a1;a2;a3;a4
1702821216,58a0a04924685ea409209bb398c138b4,PennController,19,0,experiment,NULL,PennController,20,_Trial_,End,1702821109901,A,18,a1,NULL
1702821216,58a0a04924685ea409209bb398c138b4,PennController,21,0,experiment,NULL,PennController,22,_Trial_,Start,1702821109901,A,8,a4,NULL
1702821216,58a0a04924685ea409209bb398c138b4,PennController,21,0,experiment,NULL,Selector,answer,Selection,a4,1702821118421,A,8,a4,a1;a2;a3;a4
1702821216,58a0a04924685ea409209bb398c138b4,PennController,21,0,experiment,NULL,PennController,22,_Trial_,End,1702821118421,A,8,a4,NULL
1702821216,58a0a04924685ea409209bb398c138b4,PennController,16,0,experiment,NULL,PennController,17,_Trial_,Start,1702821118423,A,15,a1,NULL
1702821216,58a0a04924685ea409209bb398c138b4,PennController,16,0,experiment,NULL,Selector,answer,Selection,a1,1702821127957,A,15,a1,a1;a2;a3;a4
1702821216,58a0a04924685ea409209bb398c138b4,PennController,16,0,experiment,NULL,PennController,17,_Trial_,End,1702821127958,A,15,a1,NULL
1702821216,58a0a04924685ea409209bb398c138b4,PennController,3,0,experiment,NULL,PennController,4,_Trial_,Start,1702821127959,A,2,a3,NULL
1702821216,58a0a04924685ea409209bb398c138b4,PennController,3,0,experiment,NULL,Selector,answer,Selection,a2,1702821135897,A,2,a3,a1;a2;a3;a4
1702821216,58a0a04924685ea409209bb398c138b4,PennController,3,0,experiment,NULL,PennController,4,_Trial_,End,1702821135898,A,2,a3,NULL
1702821216,58a0a04924685ea409209bb398c138b4,PennController,2,0,experiment,NULL,PennController,3,_Trial_,Start,1702821135899,A,1,a3,NULL
1702821216,58a0a04924685ea409209bb398c138b4,PennController,2,0,experiment,NULL,Selector,answer,Selection,a3,1702821146804,A,1,a3,a1;a2;a3;a4
1702821216,58a0a04924685ea409209bb398c138b4,PennController,2,0,experiment,NULL,PennController,3,_Trial_,End,1702821146805,A,1,a3,NULL
1702821216,58a0a04924685ea409209bb398c138b4,PennController,26,0,experiment,NULL,PennController,27,_Trial_,Start,1702821146806,A,13,a3,NULL
1702821216,58a0a04924685ea409209bb398c138b4,PennController,26,0,experiment,NULL,Selector,answer,Selection,a3,1702821158230,A,13,a3,a1;a2;a3;a4
1702821216,58a0a04924685ea409209bb398c138b4,PennController,26,0,experiment,NULL,PennController,27,_Trial_,End,1702821158231,A,13,a3,NULL
1702821216,58a0a04924685ea409209bb398c138b4,PennController,20,0,experiment,NULL,PennController,21,_Trial_,Start,1702821158232,A,7,a1,NULL
1702821216,58a0a04924685ea409209bb398c138b4,PennController,20,0,experiment,NULL,Selector,answer,Selection,a1,1702821168967,A,7,a1,a1;a2;a3;a4
1702821216,58a0a04924685ea409209bb398c138b4,PennController,20,0,experiment,NULL,PennController,21,_Trial_,End,1702821168969,A,7,a1,NULL
1702821216,58a0a04924685ea409209bb398c138b4,PennController,23,0,experiment,NULL,PennController,24,_Trial_,Start,1702821168970,A,10,a1,NULL
1702821216,58a0a04924685ea409209bb398c138b4,PennController,23,0,experiment,NULL,Selector,answer,Selection,a1,1702821177405,A,10,a1,a1;a2;a3;a4
1702821216,58a0a04924685ea409209bb398c138b4,PennController,23,0,experiment,NULL,PennController,24,_Trial_,End,1702821177406,A,10,a1,NULL
1702821216,58a0a04924685ea409209bb398c138b4,PennController,8,0,experiment,NULL,PennController,9,_Trial_,Start,1702821177407,A,7,a1,NULL
1702821216,58a0a04924685ea409209bb398c138b4,PennController,8,0,experiment,NULL,Selector,answer,Selection,a1,1702821185819,A,7,a1,a1;a2;a3;a4
1702821216,58a0a04924685ea409209bb398c138b4,PennController,8,0,experiment,NULL,PennController,9,_Trial_,End,1702821185820,A,7,a1,NULL
1702821216,58a0a04924685ea409209bb398c138b4,PennController,14,0,experiment,NULL,PennController,15,_Trial_,Start,1702821185821,A,13,a3,NULL
1702821216,58a0a04924685ea409209bb398c138b4,PennController,14,0,experiment,NULL,Selector,answer,Selection,a3,1702821194630,A,13,a3,a1;a2;a3;a4
1702821216,58a0a04924685ea409209bb398c138b4,PennController,14,0,experiment,NULL,PennController,15,_Trial_,End,1702821194631,A,13,a3,NULL
1702821216,58a0a04924685ea409209bb398c138b4,PennController,5,0,experiment,NULL,PennController,6,_Trial_,Start,1702821194632,A,4,a1,NULL
1702821216,58a0a04924685ea409209bb398c138b4,PennController,5,0,experiment,NULL,Selector,answer,Selection,a1,1702821207107,A,4,a1,a1;a2;a3;a4
1702821216,58a0a04924685ea409209bb398c138b4,PennController,5,0,experiment,NULL,PennController,6,_Trial_,End,1702821207108,A,4,a1,NULL
1702821216,58a0a04924685ea409209bb398c138b4,PennController,7,0,experiment,NULL,PennController,8,_Trial_,Start,1702821207109,A,6,a2,NULL
1702821216,58a0a04924685ea409209bb398c138b4,PennController,7,0,experiment,NULL,Selector,answer,Selection,a2,1702821216539,A,6,a2,a1;a2;a3;a4
1702821216,58a0a04924685ea409209bb398c138b4,PennController,7,0,experiment,NULL,PennController,8,_Trial_,End,1702821216540,A,6,a2,NULL
#
# Results on Sun, 17 Dec 2023 13:55:35 GMT
# USER AGENT: Mozilla/5.0 (Windows NT 10.0; Win64; x64) AppleWebKit/537.36 (KHTML, like Gecko) Chrome/120.0.0.0 Safari/537.36 Edg/120.0.0.0
# Design number was non-random = 5
#
# Columns below this comment are as follows:
# 1. Results reception time.
# 2. MD5 hash of participant's IP address.
# 3. Controller name.
# 4. Order number of item.
# 5. Inner element number.
# 6. Label.
# 7. Latin Square Group.
# 8. PennElementType.
# 9. PennElementName.
# 10. Parameter.
# 11. Value.
# 12. EventTime.
# 13. Comments.
1702821335,57228dadcd782dc0a2a997c5490332b0,PennController,0,0,instuction,NULL,PennController,0,_Trial_,Start,1702821166629,NULL
1702821335,57228dadcd782dc0a2a997c5490332b0,PennController,0,0,instuction,NULL,Scale,inputAgree,С инструкцией ознакомился(-лась)%2C согласие на обработку персональных данных даю.,checked,1702821185848,Status
1702821335,57228dadcd782dc0a2a997c5490332b0,PennController,0,0,instuction,NULL,Scale,inputAgree,Choice,С инструкцией ознакомился(-лась)%2C согласие на обработку персональных данных даю.,1702821182680,NULL
1702821335,57228dadcd782dc0a2a997c5490332b0,PennController,0,0,instuction,NULL,PennController,0,_Trial_,End,1702821185849,NULL
1702821335,57228dadcd782dc0a2a997c5490332b0,PennController,1,0,aboutinformant,NULL,PennController,1,_Trial_,Start,1702821185852,NULL
1702821335,57228dadcd782dc0a2a997c5490332b0,PennController,1,0,aboutinformant,NULL,Scale,inputGender,Мужчина,unchecked,1702821220631,Status
1702821335,57228dadcd782dc0a2a997c5490332b0,PennController,1,0,aboutinformant,NULL,Scale,inputGender,Женщина,checked,1702821220631,Status
1702821335,57228dadcd782dc0a2a997c5490332b0,PennController,1,0,aboutinformant,NULL,Scale,inputGender,Предпочитаю не указывать,unchecked,1702821220631,Status
1702821335,57228dadcd782dc0a2a997c5490332b0,PennController,1,0,aboutinformant,NULL,Scale,inputGender,Choice,Женщина,1702821188396,NULL
1702821335,57228dadcd782dc0a2a997c5490332b0,PennController,1,0,aboutinformant,NULL,TextInput,inputAge,Final,19,1702821220631,NULL
1702821335,57228dadcd782dc0a2a997c5490332b0,PennController,1,0,aboutinformant,NULL,TextInput,inputEducation,Final,неоконченное высшее%2C 12,1702821220631,NULL
1702821335,57228dadcd782dc0a2a997c5490332b0,PennController,1,0,aboutinformant,NULL,PennController,1,_Trial_,End,1702821220631,NULL
# 13. Group.
# 14. Item.
# 15. Expected.
# 16. Comments.
1702821335,57228dadcd782dc0a2a997c5490332b0,PennController,3,0,experiment,NULL,PennController,4,_Trial_,Start,1702821220632,B,2,a3,NULL
1702821335,57228dadcd782dc0a2a997c5490332b0,PennController,3,0,experiment,NULL,Selector,answer,Selection,a3,1702821233864,B,2,a3,a1;a2;a3;a4
1702821335,57228dadcd782dc0a2a997c5490332b0,PennController,3,0,experiment,NULL,PennController,4,_Trial_,End,1702821233867,B,2,a3,NULL
1702821335,57228dadcd782dc0a2a997c5490332b0,PennController,11,0,experiment,NULL,PennController,12,_Trial_,Start,1702821233867,B,17,a3,NULL
1702821335,57228dadcd782dc0a2a997c5490332b0,PennController,11,0,experiment,NULL,Selector,answer,Selection,a1,1702821242921,B,17,a3,a1;a2;a3;a4
1702821335,57228dadcd782dc0a2a997c5490332b0,PennController,11,0,experiment,NULL,PennController,12,_Trial_,End,1702821242921,B,17,a3,NULL
1702821335,57228dadcd782dc0a2a997c5490332b0,PennController,4,0,experiment,NULL,PennController,5,_Trial_,Start,1702821242922,B,3,a1,NULL
1702821335,57228dadcd782dc0a2a997c5490332b0,PennController,4,0,experiment,NULL,Selector,answer,Selection,a1,1702821255220,B,3,a1,a1;a2;a3;a4
1702821335,57228dadcd782dc0a2a997c5490332b0,PennController,4,0,experiment,NULL,PennController,5,_Trial_,End,1702821255222,B,3,a1,NULL
1702821335,57228dadcd782dc0a2a997c5490332b0,PennController,12,0,experiment,NULL,PennController,13,_Trial_,Start,1702821255223,B,18,a1,NULL
1702821335,57228dadcd782dc0a2a997c5490332b0,PennController,12,0,experiment,NULL,Selector,answer,Selection,a1,1702821264386,B,18,a1,a1;a2;a3;a4
1702821335,57228dadcd782dc0a2a997c5490332b0,PennController,12,0,experiment,NULL,PennController,13,_Trial_,End,1702821264387,B,18,a1,NULL
1702821335,57228dadcd782dc0a2a997c5490332b0,PennController,5,0,experiment,NULL,PennController,6,_Trial_,Start,1702821264389,B,4,a1,NULL
1702821335,57228dadcd782dc0a2a997c5490332b0,PennController,5,0,experiment,NULL,Selector,answer,Selection,a1,1702821277994,B,4,a1,a1;a2;a3;a4
1702821335,57228dadcd782dc0a2a997c5490332b0,PennController,5,0,experiment,NULL,PennController,6,_Trial_,End,1702821277995,B,4,a1,NULL
1702821335,57228dadcd782dc0a2a997c5490332b0,PennController,6,0,experiment,NULL,PennController,7,_Trial_,Start,1702821277995,B,5,a2,NULL
1702821335,57228dadcd782dc0a2a997c5490332b0,PennController,6,0,experiment,NULL,Selector,answer,Selection,a2,1702821285110,B,5,a2,a1;a2;a3;a4
1702821335,57228dadcd782dc0a2a997c5490332b0,PennController,6,0,experiment,NULL,PennController,7,_Trial_,End,1702821285111,B,5,a2,NULL
1702821335,57228dadcd782dc0a2a997c5490332b0,PennController,10,0,experiment,NULL,PennController,11,_Trial_,Start,1702821285113,B,16,a1,NULL
1702821335,57228dadcd782dc0a2a997c5490332b0,PennController,10,0,experiment,NULL,Selector,answer,Selection,a1,1702821294670,B,16,a1,a1;a2;a3;a4
1702821335,57228dadcd782dc0a2a997c5490332b0,PennController,10,0,experiment,NULL,PennController,11,_Trial_,End,1702821294671,B,16,a1,NULL
1702821335,57228dadcd782dc0a2a997c5490332b0,PennController,8,0,experiment,NULL,PennController,9,_Trial_,Start,1702821294672,B,14,a4,NULL
1702821335,57228dadcd782dc0a2a997c5490332b0,PennController,8,0,experiment,NULL,Selector,answer,Selection,a4,1702821305110,B,14,a4,a1;a2;a3;a4
1702821335,57228dadcd782dc0a2a997c5490332b0,PennController,8,0,experiment,NULL,PennController,9,_Trial_,End,1702821305111,B,14,a4,NULL
1702821335,57228dadcd782dc0a2a997c5490332b0,PennController,2,0,experiment,NULL,PennController,3,_Trial_,Start,1702821305112,B,1,a3,NULL
1702821335,57228dadcd782dc0a2a997c5490332b0,PennController,2,0,experiment,NULL,Selector,answer,Selection,a2,1702821315943,B,1,a3,a1;a2;a3;a4
1702821335,57228dadcd782dc0a2a997c5490332b0,PennController,2,0,experiment,NULL,PennController,3,_Trial_,End,1702821315944,B,1,a3,NULL
1702821335,57228dadcd782dc0a2a997c5490332b0,PennController,7,0,experiment,NULL,PennController,8,_Trial_,Start,1702821315946,B,6,a2,NULL
1702821335,57228dadcd782dc0a2a997c5490332b0,PennController,7,0,experiment,NULL,Selector,answer,Selection,a2,1702821326408,B,6,a2,a1;a2;a3;a4
1702821335,57228dadcd782dc0a2a997c5490332b0,PennController,7,0,experiment,NULL,PennController,8,_Trial_,End,1702821326409,B,6,a2,NULL
1702821335,57228dadcd782dc0a2a997c5490332b0,PennController,9,0,experiment,NULL,PennController,10,_Trial_,Start,1702821326410,B,15,a1,NULL
1702821335,57228dadcd782dc0a2a997c5490332b0,PennController,9,0,experiment,NULL,Selector,answer,Selection,a1,1702821335301,B,15,a1,a1;a2;a3;a4
1702821335,57228dadcd782dc0a2a997c5490332b0,PennController,9,0,experiment,NULL,PennController,10,_Trial_,End,1702821335302,B,15,a1,NULL
#
# Results on Sun, 17 Dec 2023 14:01:09 GMT
# USER AGENT: Mozilla/5.0 (Macintosh; Intel Mac OS X 10_15_7) AppleWebKit/537.36 (KHTML, like Gecko) Chrome/119.0.0.0 Safari/537.36
# Design number was non-random = 7
#
# Columns below this comment are as follows:
# 1. Results reception time.
# 2. MD5 hash of participant's IP address.
# 3. Controller name.
# 4. Order number of item.
# 5. Inner element number.
# 6. Label.
# 7. Latin Square Group.
# 8. PennElementType.
# 9. PennElementName.
# 10. Parameter.
# 11. Value.
# 12. EventTime.
# 13. Comments.
1702821669,ef8b1871d9fa1b6f982480c4edf9cd5b,PennController,0,0,instuction,NULL,PennController,0,_Trial_,Start,1702821404194,NULL
1702821669,ef8b1871d9fa1b6f982480c4edf9cd5b,PennController,0,0,instuction,NULL,Scale,inputAgree,С инструкцией ознакомился(-лась)%2C согласие на обработку персональных данных даю.,checked,1702821421830,Status
1702821669,ef8b1871d9fa1b6f982480c4edf9cd5b,PennController,0,0,instuction,NULL,PennController,0,_Trial_,End,1702821421831,NULL
1702821669,ef8b1871d9fa1b6f982480c4edf9cd5b,PennController,1,0,aboutinformant,NULL,PennController,1,_Trial_,Start,1702821421834,NULL
1702821669,ef8b1871d9fa1b6f982480c4edf9cd5b,PennController,1,0,aboutinformant,NULL,Scale,inputGender,Мужчина,unchecked,1702821457827,Status
1702821669,ef8b1871d9fa1b6f982480c4edf9cd5b,PennController,1,0,aboutinformant,NULL,Scale,inputGender,Женщина,checked,1702821457827,Status
1702821669,ef8b1871d9fa1b6f982480c4edf9cd5b,PennController,1,0,aboutinformant,NULL,Scale,inputGender,Предпочитаю не указывать,unchecked,1702821457827,Status
1702821669,ef8b1871d9fa1b6f982480c4edf9cd5b,PennController,1,0,aboutinformant,NULL,Scale,inputGender,Choice,Женщина,1702821426325,NULL
1702821669,ef8b1871d9fa1b6f982480c4edf9cd5b,PennController,1,0,aboutinformant,NULL,TextInput,inputAge,Final,19,1702821457828,NULL
1702821669,ef8b1871d9fa1b6f982480c4edf9cd5b,PennController,1,0,aboutinformant,NULL,TextInput,inputEducation,Final,неоконченное высшее%2C 13,1702821457828,NULL
1702821669,ef8b1871d9fa1b6f982480c4edf9cd5b,PennController,1,0,aboutinformant,NULL,PennController,1,_Trial_,End,1702821457828,NULL
# 13. Group.
# 14. Item.
# 15. Expected.
# 16. Comments.
1702821669,ef8b1871d9fa1b6f982480c4edf9cd5b,PennController,16,0,experiment,NULL,PennController,17,_Trial_,Start,1702821457831,D,15,a1,NULL
1702821669,ef8b1871d9fa1b6f982480c4edf9cd5b,PennController,16,0,experiment,NULL,Selector,answer,Selection,a1,1702821475560,D,15,a1,a1;a2;a3;a4
1702821669,ef8b1871d9fa1b6f982480c4edf9cd5b,PennController,16,0,experiment,NULL,PennController,17,_Trial_,End,1702821475565,D,15,a1,NULL
1702821669,ef8b1871d9fa1b6f982480c4edf9cd5b,PennController,7,0,experiment,NULL,PennController,8,_Trial_,Start,1702821475567,D,6,a2,NULL
1702821669,ef8b1871d9fa1b6f982480c4edf9cd5b,PennController,7,0,experiment,NULL,Selector,answer,Selection,a2,1702821485905,D,6,a2,a1;a2;a3;a4
1702821669,ef8b1871d9fa1b6f982480c4edf9cd5b,PennController,7,0,experiment,NULL,PennController,8,_Trial_,End,1702821485906,D,6,a2,NULL
1702821669,ef8b1871d9fa1b6f982480c4edf9cd5b,PennController,12,0,experiment,NULL,PennController,13,_Trial_,Start,1702821485907,D,11,a3,NULL
1702821669,ef8b1871d9fa1b6f982480c4edf9cd5b,PennController,12,0,experiment,NULL,Selector,answer,Selection,a3,1702821499823,D,11,a3,a1;a2;a3;a4
1702821669,ef8b1871d9fa1b6f982480c4edf9cd5b,PennController,12,0,experiment,NULL,PennController,13,_Trial_,End,1702821499825,D,11,a3,NULL
1702821669,ef8b1871d9fa1b6f982480c4edf9cd5b,PennController,11,0,experiment,NULL,PennController,12,_Trial_,Start,1702821499827,D,10,a1,NULL
1702821669,ef8b1871d9fa1b6f982480c4edf9cd5b,PennController,11,0,experiment,NULL,Selector,answer,Selection,a1,1702821512274,D,10,a1,a1;a2;a3;a4
1702821669,ef8b1871d9fa1b6f982480c4edf9cd5b,PennController,11,0,experiment,NULL,PennController,12,_Trial_,End,1702821512275,D,10,a1,NULL
1702821669,ef8b1871d9fa1b6f982480c4edf9cd5b,PennController,8,0,experiment,NULL,PennController,9,_Trial_,Start,1702821512276,D,7,a1,NULL
1702821669,ef8b1871d9fa1b6f982480c4edf9cd5b,PennController,8,0,experiment,NULL,Selector,answer,Selection,a1,1702821526923,D,7,a1,a1;a2;a3;a4
1702821669,ef8b1871d9fa1b6f982480c4edf9cd5b,PennController,8,0,experiment,NULL,PennController,9,_Trial_,End,1702821526925,D,7,a1,NULL
1702821669,ef8b1871d9fa1b6f982480c4edf9cd5b,PennController,3,0,experiment,NULL,PennController,4,_Trial_,Start,1702821526926,D,2,a1,NULL
1702821669,ef8b1871d9fa1b6f982480c4edf9cd5b,PennController,3,0,experiment,NULL,Selector,answer,Selection,a1,1702821536222,D,2,a1,a1;a2;a3;a4
1702821669,ef8b1871d9fa1b6f982480c4edf9cd5b,PennController,3,0,experiment,NULL,PennController,4,_Trial_,End,1702821536223,D,2,a1,NULL
1702821669,ef8b1871d9fa1b6f982480c4edf9cd5b,PennController,6,0,experiment,NULL,PennController,7,_Trial_,Start,1702821536223,D,5,a1,NULL
1702821669,ef8b1871d9fa1b6f982480c4edf9cd5b,PennController,6,0,experiment,NULL,Selector,answer,Selection,a2,1702821544090,D,5,a1,a1;a2;a3;a4
1702821669,ef8b1871d9fa1b6f982480c4edf9cd5b,PennController,6,0,experiment,NULL,PennController,7,_Trial_,End,1702821544092,D,5,a1,NULL
1702821669,ef8b1871d9fa1b6f982480c4edf9cd5b,PennController,5,0,experiment,NULL,PennController,6,_Trial_,Start,1702821544094,D,4,a2,NULL
1702821669,ef8b1871d9fa1b6f982480c4edf9cd5b,PennController,5,0,experiment,NULL,Selector,answer,Selection,a2,1702821553657,D,4,a2,a1;a2;a3;a4
1702821669,ef8b1871d9fa1b6f982480c4edf9cd5b,PennController,5,0,experiment,NULL,PennController,6,_Trial_,End,1702821553659,D,4,a2,NULL
1702821669,ef8b1871d9fa1b6f982480c4edf9cd5b,PennController,18,0,experiment,NULL,PennController,19,_Trial_,Start,1702821553660,D,17,a3,NULL
1702821669,ef8b1871d9fa1b6f982480c4edf9cd5b,PennController,18,0,experiment,NULL,Selector,answer,Selection,a3,1702821565807,D,17,a3,a1;a2;a3;a4
1702821669,ef8b1871d9fa1b6f982480c4edf9cd5b,PennController,18,0,experiment,NULL,PennController,19,_Trial_,End,1702821565809,D,17,a3,NULL
1702821669,ef8b1871d9fa1b6f982480c4edf9cd5b,PennController,10,0,experiment,NULL,PennController,11,_Trial_,Start,1702821565812,D,9,a1,NULL
1702821669,ef8b1871d9fa1b6f982480c4edf9cd5b,PennController,10,0,experiment,NULL,Selector,answer,Selection,a1,1702821576109,D,9,a1,a1;a2;a3;a4
1702821669,ef8b1871d9fa1b6f982480c4edf9cd5b,PennController,10,0,experiment,NULL,PennController,11,_Trial_,End,1702821576110,D,9,a1,NULL
1702821669,ef8b1871d9fa1b6f982480c4edf9cd5b,PennController,2,0,experiment,NULL,PennController,3,_Trial_,Start,1702821576111,D,1,a3,NULL
1702821669,ef8b1871d9fa1b6f982480c4edf9cd5b,PennController,2,0,experiment,NULL,Selector,answer,Selection,a1,1702821589460,D,1,a3,a1;a2;a3;a4
1702821669,ef8b1871d9fa1b6f982480c4edf9cd5b,PennController,2,0,experiment,NULL,PennController,3,_Trial_,End,1702821589462,D,1,a3,NULL
1702821669,ef8b1871d9fa1b6f982480c4edf9cd5b,PennController,17,0,experiment,NULL,PennController,18,_Trial_,Start,1702821589464,D,16,a1,NULL
1702821669,ef8b1871d9fa1b6f982480c4edf9cd5b,PennController,17,0,experiment,NULL,Selector,answer,Selection,a1,1702821598591,D,16,a1,a1;a2;a3;a4
1702821669,ef8b1871d9fa1b6f982480c4edf9cd5b,PennController,17,0,experiment,NULL,PennController,18,_Trial_,End,1702821598593,D,16,a1,NULL
1702821669,ef8b1871d9fa1b6f982480c4edf9cd5b,PennController,9,0,experiment,NULL,PennController,10,_Trial_,Start,1702821598595,D,8,a4,NULL
1702821669,ef8b1871d9fa1b6f982480c4edf9cd5b,PennController,9,0,experiment,NULL,Selector,answer,Selection,a4,1702821611441,D,8,a4,a1;a2;a3;a4
1702821669,ef8b1871d9fa1b6f982480c4edf9cd5b,PennController,9,0,experiment,NULL,PennController,10,_Trial_,End,1702821611442,D,8,a4,NULL
1702821669,ef8b1871d9fa1b6f982480c4edf9cd5b,PennController,4,0,experiment,NULL,PennController,5,_Trial_,Start,1702821611445,D,3,a3,NULL
1702821669,ef8b1871d9fa1b6f982480c4edf9cd5b,PennController,4,0,experiment,NULL,Selector,answer,Selection,a2,1702821621758,D,3,a3,a1;a2;a3;a4
1702821669,ef8b1871d9fa1b6f982480c4edf9cd5b,PennController,4,0,experiment,NULL,PennController,5,_Trial_,End,1702821621760,D,3,a3,NULL
1702821669,ef8b1871d9fa1b6f982480c4edf9cd5b,PennController,15,0,experiment,NULL,PennController,16,_Trial_,Start,1702821621761,D,14,a4,NULL
1702821669,ef8b1871d9fa1b6f982480c4edf9cd5b,PennController,15,0,experiment,NULL,Selector,answer,Selection,a4,1702821632158,D,14,a4,a1;a2;a3;a4
1702821669,ef8b1871d9fa1b6f982480c4edf9cd5b,PennController,15,0,experiment,NULL,PennController,16,_Trial_,End,1702821632160,D,14,a4,NULL
1702821669,ef8b1871d9fa1b6f982480c4edf9cd5b,PennController,19,0,experiment,NULL,PennController,20,_Trial_,Start,1702821632161,D,18,a1,NULL
1702821669,ef8b1871d9fa1b6f982480c4edf9cd5b,PennController,19,0,experiment,NULL,Selector,answer,Selection,a1,1702821641192,D,18,a1,a1;a2;a3;a4
1702821669,ef8b1871d9fa1b6f982480c4edf9cd5b,PennController,19,0,experiment,NULL,PennController,20,_Trial_,End,1702821641193,D,18,a1,NULL
1702821669,ef8b1871d9fa1b6f982480c4edf9cd5b,PennController,14,0,experiment,NULL,PennController,15,_Trial_,Start,1702821641195,D,13,a3,NULL
1702821669,ef8b1871d9fa1b6f982480c4edf9cd5b,PennController,14,0,experiment,NULL,Selector,answer,Selection,a4,1702821656992,D,13,a3,a1;a2;a3;a4
1702821669,ef8b1871d9fa1b6f982480c4edf9cd5b,PennController,14,0,experiment,NULL,PennController,15,_Trial_,End,1702821656994,D,13,a3,NULL
1702821669,ef8b1871d9fa1b6f982480c4edf9cd5b,PennController,13,0,experiment,NULL,PennController,14,_Trial_,Start,1702821656995,D,12,a4,NULL
1702821669,ef8b1871d9fa1b6f982480c4edf9cd5b,PennController,13,0,experiment,NULL,Selector,answer,Selection,a4,1702821669457,D,12,a4,a1;a2;a3;a4
1702821669,ef8b1871d9fa1b6f982480c4edf9cd5b,PennController,13,0,experiment,NULL,PennController,14,_Trial_,End,1702821669458,D,12,a4,NULL
#
# Results on Sun, 17 Dec 2023 14:11:10 GMT
# USER AGENT: Mozilla/5.0 (Windows NT 10.0; Win64; x64) AppleWebKit/537.36 (KHTML, like Gecko) Chrome/120.0.0.0 Safari/537.36
# Design number was non-random = 8
#
# Columns below this comment are as follows:
# 1. Results reception time.
# 2. MD5 hash of participant's IP address.
# 3. Controller name.
# 4. Order number of item.
# 5. Inner element number.
# 6. Label.
# 7. Latin Square Group.
# 8. PennElementType.
# 9. PennElementName.
# 10. Parameter.
# 11. Value.
# 12. EventTime.
# 13. Comments.
1702822270,0bf12386fe09ac48567c690fd6c8aaa9,PennController,0,0,instuction,NULL,PennController,0,_Trial_,Start,1702821700520,NULL
1702822270,0bf12386fe09ac48567c690fd6c8aaa9,PennController,0,0,instuction,NULL,Scale,inputAgree,С инструкцией ознакомился(-лась)%2C согласие на обработку персональных данных даю.,checked,1702821708335,Status
1702822270,0bf12386fe09ac48567c690fd6c8aaa9,PennController,0,0,instuction,NULL,Scale,inputAgree,Choice,С инструкцией ознакомился(-лась)%2C согласие на обработку персональных данных даю.,1702821707042,NULL
1702822270,0bf12386fe09ac48567c690fd6c8aaa9,PennController,0,0,instuction,NULL,PennController,0,_Trial_,End,1702821708336,NULL
1702822270,0bf12386fe09ac48567c690fd6c8aaa9,PennController,1,0,aboutinformant,NULL,PennController,1,_Trial_,Start,1702821708342,NULL
1702822270,0bf12386fe09ac48567c690fd6c8aaa9,PennController,1,0,aboutinformant,NULL,Scale,inputGender,Мужчина,checked,1702821894309,Status
1702822270,0bf12386fe09ac48567c690fd6c8aaa9,PennController,1,0,aboutinformant,NULL,Scale,inputGender,Женщина,unchecked,1702821894309,Status
1702822270,0bf12386fe09ac48567c690fd6c8aaa9,PennController,1,0,aboutinformant,NULL,Scale,inputGender,Предпочитаю не указывать,unchecked,1702821894309,Status
1702822270,0bf12386fe09ac48567c690fd6c8aaa9,PennController,1,0,aboutinformant,NULL,Scale,inputGender,Choice,Мужчина,1702821713357,NULL
1702822270,0bf12386fe09ac48567c690fd6c8aaa9,PennController,1,0,aboutinformant,NULL,TextInput,inputAge,Final,21,1702821894310,NULL
1702822270,0bf12386fe09ac48567c690fd6c8aaa9,PennController,1,0,aboutinformant,NULL,TextInput,inputEducation,Final,неоконченное высшее%2C 13,1702821894310,NULL
1702822270,0bf12386fe09ac48567c690fd6c8aaa9,PennController,1,0,aboutinformant,NULL,PennController,1,_Trial_,End,1702821894310,NULL
# 13. Group.
# 14. Item.
# 15. Expected.
# 16. Comments.
1702822270,0bf12386fe09ac48567c690fd6c8aaa9,PennController,19,0,experiment,NULL,PennController,20,_Trial_,Start,1702821894313,A,18,a1,NULL
1702822270,0bf12386fe09ac48567c690fd6c8aaa9,PennController,19,0,experiment,NULL,Selector,answer,Selection,a1,1702821909919,A,18,a1,a1;a2;a3;a4
1702822270,0bf12386fe09ac48567c690fd6c8aaa9,PennController,19,0,experiment,NULL,PennController,20,_Trial_,End,1702821909923,A,18,a1,NULL
1702822270,0bf12386fe09ac48567c690fd6c8aaa9,PennController,11,0,experiment,NULL,PennController,12,_Trial_,Start,1702821909925,A,10,a1,NULL
1702822270,0bf12386fe09ac48567c690fd6c8aaa9,PennController,11,0,experiment,NULL,Selector,answer,Selection,a1,1702821920927,A,10,a1,a1;a2;a3;a4
1702822270,0bf12386fe09ac48567c690fd6c8aaa9,PennController,11,0,experiment,NULL,PennController,12,_Trial_,End,1702821920929,A,10,a1,NULL
1702822270,0bf12386fe09ac48567c690fd6c8aaa9,PennController,13,0,experiment,NULL,PennController,14,_Trial_,Start,1702821920931,A,12,a4,NULL
1702822270,0bf12386fe09ac48567c690fd6c8aaa9,PennController,13,0,experiment,NULL,Selector,answer,Selection,a1,1702821979560,A,12,a4,a1;a2;a3;a4
1702822270,0bf12386fe09ac48567c690fd6c8aaa9,PennController,13,0,experiment,NULL,PennController,14,_Trial_,End,1702821979562,A,12,a4,NULL
1702822270,0bf12386fe09ac48567c690fd6c8aaa9,PennController,23,0,experiment,NULL,PennController,24,_Trial_,Start,1702821979564,A,10,a1,NULL
1702822270,0bf12386fe09ac48567c690fd6c8aaa9,PennController,23,0,experiment,NULL,Selector,answer,Selection,a1,1702821993519,A,10,a1,a1;a2;a3;a4
1702822270,0bf12386fe09ac48567c690fd6c8aaa9,PennController,23,0,experiment,NULL,PennController,24,_Trial_,End,1702821993521,A,10,a1,NULL
1702822270,0bf12386fe09ac48567c690fd6c8aaa9,PennController,26,0,experiment,NULL,PennController,27,_Trial_,Start,1702821993522,A,13,a3,NULL
1702822270,0bf12386fe09ac48567c690fd6c8aaa9,PennController,26,0,experiment,NULL,Selector,answer,Selection,a3,1702822006137,A,13,a3,a1;a2;a3;a4
1702822270,0bf12386fe09ac48567c690fd6c8aaa9,PennController,26,0,experiment,NULL,PennController,27,_Trial_,End,1702822006138,A,13,a3,NULL
1702822270,0bf12386fe09ac48567c690fd6c8aaa9,PennController,2,0,experiment,NULL,PennController,3,_Trial_,Start,1702822006140,A,1,a3,NULL
1702822270,0bf12386fe09ac48567c690fd6c8aaa9,PennController,2,0,experiment,NULL,Selector,answer,Selection,a3,1702822029397,A,1,a3,a1;a2;a3;a4
1702822270,0bf12386fe09ac48567c690fd6c8aaa9,PennController,2,0,experiment,NULL,PennController,3,_Trial_,End,1702822029400,A,1,a3,NULL
1702822270,0bf12386fe09ac48567c690fd6c8aaa9,PennController,9,0,experiment,NULL,PennController,10,_Trial_,Start,1702822029403,A,8,a4,NULL
1702822270,0bf12386fe09ac48567c690fd6c8aaa9,PennController,9,0,experiment,NULL,Selector,answer,Selection,a4,1702822040513,A,8,a4,a1;a2;a3;a4
1702822270,0bf12386fe09ac48567c690fd6c8aaa9,PennController,9,0,experiment,NULL,PennController,10,_Trial_,End,1702822040515,A,8,a4,NULL
1702822270,0bf12386fe09ac48567c690fd6c8aaa9,PennController,6,0,experiment,NULL,PennController,7,_Trial_,Start,1702822040518,A,5,a2,NULL
1702822270,0bf12386fe09ac48567c690fd6c8aaa9,PennController,6,0,experiment,NULL,Selector,answer,Selection,a2,1702822055201,A,5,a2,a1;a2;a3;a4
1702822270,0bf12386fe09ac48567c690fd6c8aaa9,PennController,6,0,experiment,NULL,PennController,7,_Trial_,End,1702822055203,A,5,a2,NULL
1702822270,0bf12386fe09ac48567c690fd6c8aaa9,PennController,17,0,experiment,NULL,PennController,18,_Trial_,Start,1702822055205,A,16,a1,NULL
1702822270,0bf12386fe09ac48567c690fd6c8aaa9,PennController,17,0,experiment,NULL,Selector,answer,Selection,a1,1702822064304,A,16,a1,a1;a2;a3;a4
1702822270,0bf12386fe09ac48567c690fd6c8aaa9,PennController,17,0,experiment,NULL,PennController,18,_Trial_,End,1702822064305,A,16,a1,NULL
1702822270,0bf12386fe09ac48567c690fd6c8aaa9,PennController,4,0,experiment,NULL,PennController,5,_Trial_,Start,1702822064307,A,3,a1,NULL
1702822270,0bf12386fe09ac48567c690fd6c8aaa9,PennController,4,0,experiment,NULL,Selector,answer,Selection,a1,1702822074348,A,3,a1,a1;a2;a3;a4
1702822270,0bf12386fe09ac48567c690fd6c8aaa9,PennController,4,0,experiment,NULL,PennController,5,_Trial_,End,1702822074351,A,3,a1,NULL
1702822270,0bf12386fe09ac48567c690fd6c8aaa9,PennController,12,0,experiment,NULL,PennController,13,_Trial_,Start,1702822074353,A,11,a3,NULL
1702822270,0bf12386fe09ac48567c690fd6c8aaa9,PennController,12,0,experiment,NULL,Selector,answer,Selection,a3,1702822085089,A,11,a3,a1;a2;a3;a4
1702822270,0bf12386fe09ac48567c690fd6c8aaa9,PennController,12,0,experiment,NULL,PennController,13,_Trial_,End,1702822085091,A,11,a3,NULL
1702822270,0bf12386fe09ac48567c690fd6c8aaa9,PennController,10,0,experiment,NULL,PennController,11,_Trial_,Start,1702822085092,A,9,a1,NULL
1702822270,0bf12386fe09ac48567c690fd6c8aaa9,PennController,10,0,experiment,NULL,Selector,answer,Selection,a1,1702822095744,A,9,a1,a1;a2;a3;a4
1702822270,0bf12386fe09ac48567c690fd6c8aaa9,PennController,10,0,experiment,NULL,PennController,11,_Trial_,End,1702822095746,A,9,a1,NULL
1702822270,0bf12386fe09ac48567c690fd6c8aaa9,PennController,16,0,experiment,NULL,PennController,17,_Trial_,Start,1702822095747,A,15,a1,NULL
1702822270,0bf12386fe09ac48567c690fd6c8aaa9,PennController,16,0,experiment,NULL,Selector,answer,Selection,a1,1702822108204,A,15,a1,a1;a2;a3;a4
1702822270,0bf12386fe09ac48567c690fd6c8aaa9,PennController,16,0,experiment,NULL,PennController,17,_Trial_,End,1702822108205,A,15,a1,NULL
1702822270,0bf12386fe09ac48567c690fd6c8aaa9,PennController,24,0,experiment,NULL,PennController,25,_Trial_,Start,1702822108207,A,11,a3,NULL
1702822270,0bf12386fe09ac48567c690fd6c8aaa9,PennController,24,0,experiment,NULL,Selector,answer,Selection,a3,1702822116683,A,11,a3,a1;a2;a3;a4
1702822270,0bf12386fe09ac48567c690fd6c8aaa9,PennController,24,0,experiment,NULL,PennController,25,_Trial_,End,1702822116685,A,11,a3,NULL
1702822270,0bf12386fe09ac48567c690fd6c8aaa9,PennController,3,0,experiment,NULL,PennController,4,_Trial_,Start,1702822116686,A,2,a3,NULL
1702822270,0bf12386fe09ac48567c690fd6c8aaa9,PennController,3,0,experiment,NULL,Selector,answer,Selection,a1,1702822136705,A,2,a3,a1;a2;a3;a4
1702822270,0bf12386fe09ac48567c690fd6c8aaa9,PennController,3,0,experiment,NULL,PennController,4,_Trial_,End,1702822136707,A,2,a3,NULL
1702822270,0bf12386fe09ac48567c690fd6c8aaa9,PennController,15,0,experiment,NULL,PennController,16,_Trial_,Start,1702822136708,A,14,a4,NULL
1702822270,0bf12386fe09ac48567c690fd6c8aaa9,PennController,15,0,experiment,NULL,Selector,answer,Selection,a4,1702822149096,A,14,a4,a1;a2;a3;a4
1702822270,0bf12386fe09ac48567c690fd6c8aaa9,PennController,15,0,experiment,NULL,PennController,16,_Trial_,End,1702822149098,A,14,a4,NULL
1702822270,0bf12386fe09ac48567c690fd6c8aaa9,PennController,20,0,experiment,NULL,PennController,21,_Trial_,Start,1702822149099,A,7,a1,NULL
1702822270,0bf12386fe09ac48567c690fd6c8aaa9,PennController,20,0,experiment,NULL,Selector,answer,Selection,a1,1702822160808,A,7,a1,a1;a2;a3;a4
1702822270,0bf12386fe09ac48567c690fd6c8aaa9,PennController,20,0,experiment,NULL,PennController,21,_Trial_,End,1702822160810,A,7,a1,NULL
1702822270,0bf12386fe09ac48567c690fd6c8aaa9,PennController,22,0,experiment,NULL,PennController,23,_Trial_,Start,1702822160812,A,9,a1,NULL
1702822270,0bf12386fe09ac48567c690fd6c8aaa9,PennController,22,0,experiment,NULL,Selector,answer,Selection,a1,1702822168660,A,9,a1,a1;a2;a3;a4
1702822270,0bf12386fe09ac48567c690fd6c8aaa9,PennController,22,0,experiment,NULL,PennController,23,_Trial_,End,1702822168662,A,9,a1,NULL
1702822270,0bf12386fe09ac48567c690fd6c8aaa9,PennController,18,0,experiment,NULL,PennController,19,_Trial_,Start,1702822168664,A,17,a3,NULL
1702822270,0bf12386fe09ac48567c690fd6c8aaa9,PennController,18,0,experiment,NULL,Selector,answer,Selection,a3,1702822180754,A,17,a3,a1;a2;a3;a4
1702822270,0bf12386fe09ac48567c690fd6c8aaa9,PennController,18,0,experiment,NULL,PennController,19,_Trial_,End,1702822180755,A,17,a3,NULL
1702822270,0bf12386fe09ac48567c690fd6c8aaa9,PennController,8,0,experiment,NULL,PennController,9,_Trial_,Start,1702822180757,A,7,a1,NULL
1702822270,0bf12386fe09ac48567c690fd6c8aaa9,PennController,8,0,experiment,NULL,Selector,answer,Selection,a1,1702822188172,A,7,a1,a1;a2;a3;a4
1702822270,0bf12386fe09ac48567c690fd6c8aaa9,PennController,8,0,experiment,NULL,PennController,9,_Trial_,End,1702822188174,A,7,a1,NULL
1702822270,0bf12386fe09ac48567c690fd6c8aaa9,PennController,25,0,experiment,NULL,PennController,26,_Trial_,Start,1702822188176,A,12,a4,NULL
1702822270,0bf12386fe09ac48567c690fd6c8aaa9,PennController,25,0,experiment,NULL,Selector,answer,Selection,a4,1702822232065,A,12,a4,a1;a2;a3;a4
1702822270,0bf12386fe09ac48567c690fd6c8aaa9,PennController,25,0,experiment,NULL,PennController,26,_Trial_,End,1702822232066,A,12,a4,NULL
1702822270,0bf12386fe09ac48567c690fd6c8aaa9,PennController,21,0,experiment,NULL,PennController,22,_Trial_,Start,1702822232067,A,8,a4,NULL
1702822270,0bf12386fe09ac48567c690fd6c8aaa9,PennController,21,0,experiment,NULL,Selector,answer,Selection,a4,1702822240981,A,8,a4,a1;a2;a3;a4
1702822270,0bf12386fe09ac48567c690fd6c8aaa9,PennController,21,0,experiment,NULL,PennController,22,_Trial_,End,1702822240983,A,8,a4,NULL
1702822270,0bf12386fe09ac48567c690fd6c8aaa9,PennController,14,0,experiment,NULL,PennController,15,_Trial_,Start,1702822240984,A,13,a3,NULL
1702822270,0bf12386fe09ac48567c690fd6c8aaa9,PennController,14,0,experiment,NULL,Selector,answer,Selection,a3,1702822248630,A,13,a3,a1;a2;a3;a4
1702822270,0bf12386fe09ac48567c690fd6c8aaa9,PennController,14,0,experiment,NULL,PennController,15,_Trial_,End,1702822248631,A,13,a3,NULL
1702822270,0bf12386fe09ac48567c690fd6c8aaa9,PennController,7,0,experiment,NULL,PennController,8,_Trial_,Start,1702822248632,A,6,a2,NULL
1702822270,0bf12386fe09ac48567c690fd6c8aaa9,PennController,7,0,experiment,NULL,Selector,answer,Selection,a2,1702822257255,A,6,a2,a1;a2;a3;a4
1702822270,0bf12386fe09ac48567c690fd6c8aaa9,PennController,7,0,experiment,NULL,PennController,8,_Trial_,End,1702822257256,A,6,a2,NULL
1702822270,0bf12386fe09ac48567c690fd6c8aaa9,PennController,5,0,experiment,NULL,PennController,6,_Trial_,Start,1702822257258,A,4,a1,NULL
1702822270,0bf12386fe09ac48567c690fd6c8aaa9,PennController,5,0,experiment,NULL,Selector,answer,Selection,a1,1702822267673,A,4,a1,a1;a2;a3;a4
1702822270,0bf12386fe09ac48567c690fd6c8aaa9,PennController,5,0,experiment,NULL,PennController,6,_Trial_,End,1702822267675,A,4,a1,NULL
#
# Results on Sun, 17 Dec 2023 14:30:28 GMT
# USER AGENT: Mozilla/5.0 (Windows NT 10.0; Win64; x64; rv:120.0) Gecko/20100101 Firefox/120.0
# Design number was non-random = 9
#
# Columns below this comment are as follows:
# 1. Results reception time.
# 2. MD5 hash of participant's IP address.
# 3. Controller name.
# 4. Order number of item.
# 5. Inner element number.
# 6. Label.
# 7. Latin Square Group.
# 8. PennElementType.
# 9. PennElementName.
# 10. Parameter.
# 11. Value.
# 12. EventTime.
# 13. Comments.
1702823428,526b4d9396810ce9c3b4ff333c17305b,PennController,0,0,instuction,NULL,PennController,0,_Trial_,Start,1702823184798,NULL
1702823428,526b4d9396810ce9c3b4ff333c17305b,PennController,0,0,instuction,NULL,Scale,inputAgree,Choice,С инструкцией ознакомился(-лась)%2C согласие на обработку персональных данных даю.,1702823209258,NULL
1702823428,526b4d9396810ce9c3b4ff333c17305b,PennController,0,0,instuction,NULL,Scale,inputAgree,С инструкцией ознакомился(-лась)%2C согласие на обработку персональных данных даю.,checked,1702823239515,Status
1702823428,526b4d9396810ce9c3b4ff333c17305b,PennController,0,0,instuction,NULL,PennController,0,_Trial_,End,1702823239515,NULL
1702823428,526b4d9396810ce9c3b4ff333c17305b,PennController,1,0,aboutinformant,NULL,PennController,1,_Trial_,Start,1702823239519,NULL
1702823428,526b4d9396810ce9c3b4ff333c17305b,PennController,1,0,aboutinformant,NULL,Scale,inputGender,Choice,Мужчина,1702823245897,NULL
1702823428,526b4d9396810ce9c3b4ff333c17305b,PennController,1,0,aboutinformant,NULL,Scale,inputGender,Мужчина,checked,1702823286755,Status
1702823428,526b4d9396810ce9c3b4ff333c17305b,PennController,1,0,aboutinformant,NULL,Scale,inputGender,Женщина,unchecked,1702823286755,Status
1702823428,526b4d9396810ce9c3b4ff333c17305b,PennController,1,0,aboutinformant,NULL,Scale,inputGender,Предпочитаю не указывать,unchecked,1702823286755,Status
1702823428,526b4d9396810ce9c3b4ff333c17305b,PennController,1,0,aboutinformant,NULL,TextInput,inputAge,Final,18,1702823286756,NULL
1702823428,526b4d9396810ce9c3b4ff333c17305b,PennController,1,0,aboutinformant,NULL,TextInput,inputEducation,Final,неоконченное высшее%2C 11,1702823286757,NULL
1702823428,526b4d9396810ce9c3b4ff333c17305b,PennController,1,0,aboutinformant,NULL,PennController,1,_Trial_,End,1702823286757,NULL
# 13. Group.
# 14. Item.
# 15. Expected.
# 16. Comments.
1702823428,526b4d9396810ce9c3b4ff333c17305b,PennController,3,0,experiment,NULL,PennController,4,_Trial_,Start,1702823286760,B,2,a3,NULL
1702823428,526b4d9396810ce9c3b4ff333c17305b,PennController,3,0,experiment,NULL,Selector,answer,Selection,a3,1702823313690,B,2,a3,a1;a2;a3;a4
1702823428,526b4d9396810ce9c3b4ff333c17305b,PennController,3,0,experiment,NULL,PennController,4,_Trial_,End,1702823313691,B,2,a3,NULL
1702823428,526b4d9396810ce9c3b4ff333c17305b,PennController,11,0,experiment,NULL,PennController,12,_Trial_,Start,1702823313692,B,17,a3,NULL
1702823428,526b4d9396810ce9c3b4ff333c17305b,PennController,11,0,experiment,NULL,Selector,answer,Selection,a1,1702823328865,B,17,a3,a1;a2;a3;a4
1702823428,526b4d9396810ce9c3b4ff333c17305b,PennController,11,0,experiment,NULL,PennController,12,_Trial_,End,1702823328866,B,17,a3,NULL
1702823428,526b4d9396810ce9c3b4ff333c17305b,PennController,7,0,experiment,NULL,PennController,8,_Trial_,Start,1702823328867,B,6,a2,NULL
1702823428,526b4d9396810ce9c3b4ff333c17305b,PennController,7,0,experiment,NULL,Selector,answer,Selection,a2,1702823341866,B,6,a2,a1;a2;a3;a4
1702823428,526b4d9396810ce9c3b4ff333c17305b,PennController,7,0,experiment,NULL,PennController,8,_Trial_,End,1702823341867,B,6,a2,NULL
1702823428,526b4d9396810ce9c3b4ff333c17305b,PennController,8,0,experiment,NULL,PennController,9,_Trial_,Start,1702823341867,B,14,a4,NULL
1702823428,526b4d9396810ce9c3b4ff333c17305b,PennController,8,0,experiment,NULL,Selector,answer,Selection,a4,1702823358041,B,14,a4,a1;a2;a3;a4
1702823428,526b4d9396810ce9c3b4ff333c17305b,PennController,8,0,experiment,NULL,PennController,9,_Trial_,End,1702823358043,B,14,a4,NULL
1702823428,526b4d9396810ce9c3b4ff333c17305b,PennController,6,0,experiment,NULL,PennController,7,_Trial_,Start,1702823358044,B,5,a2,NULL
1702823428,526b4d9396810ce9c3b4ff333c17305b,PennController,6,0,experiment,NULL,Selector,answer,Selection,a2,1702823366355,B,5,a2,a1;a2;a3;a4
1702823428,526b4d9396810ce9c3b4ff333c17305b,PennController,6,0,experiment,NULL,PennController,7,_Trial_,End,1702823366355,B,5,a2,NULL
1702823428,526b4d9396810ce9c3b4ff333c17305b,PennController,12,0,experiment,NULL,PennController,13,_Trial_,Start,1702823366356,B,18,a1,NULL
1702823428,526b4d9396810ce9c3b4ff333c17305b,PennController,12,0,experiment,NULL,Selector,answer,Selection,a1,1702823380178,B,18,a1,a1;a2;a3;a4
1702823428,526b4d9396810ce9c3b4ff333c17305b,PennController,12,0,experiment,NULL,PennController,13,_Trial_,End,1702823380179,B,18,a1,NULL
1702823428,526b4d9396810ce9c3b4ff333c17305b,PennController,5,0,experiment,NULL,PennController,6,_Trial_,Start,1702823380180,B,4,a1,NULL
1702823428,526b4d9396810ce9c3b4ff333c17305b,PennController,5,0,experiment,NULL,Selector,answer,Selection,a2,1702823390130,B,4,a1,a1;a2;a3;a4
1702823428,526b4d9396810ce9c3b4ff333c17305b,PennController,5,0,experiment,NULL,PennController,6,_Trial_,End,1702823390131,B,4,a1,NULL
1702823428,526b4d9396810ce9c3b4ff333c17305b,PennController,10,0,experiment,NULL,PennController,11,_Trial_,Start,1702823390132,B,16,a1,NULL
1702823428,526b4d9396810ce9c3b4ff333c17305b,PennController,10,0,experiment,NULL,Selector,answer,Selection,a1,1702823398178,B,16,a1,a1;a2;a3;a4
1702823428,526b4d9396810ce9c3b4ff333c17305b,PennController,10,0,experiment,NULL,PennController,11,_Trial_,End,1702823398178,B,16,a1,NULL
1702823428,526b4d9396810ce9c3b4ff333c17305b,PennController,4,0,experiment,NULL,PennController,5,_Trial_,Start,1702823398180,B,3,a1,NULL
1702823428,526b4d9396810ce9c3b4ff333c17305b,PennController,4,0,experiment,NULL,Selector,answer,Selection,a1,1702823406682,B,3,a1,a1;a2;a3;a4
1702823428,526b4d9396810ce9c3b4ff333c17305b,PennController,4,0,experiment,NULL,PennController,5,_Trial_,End,1702823406683,B,3,a1,NULL
1702823428,526b4d9396810ce9c3b4ff333c17305b,PennController,2,0,experiment,NULL,PennController,3,_Trial_,Start,1702823406684,B,1,a3,NULL
1702823428,526b4d9396810ce9c3b4ff333c17305b,PennController,2,0,experiment,NULL,Selector,answer,Selection,a2,1702823415570,B,1,a3,a1;a2;a3;a4
1702823428,526b4d9396810ce9c3b4ff333c17305b,PennController,2,0,experiment,NULL,PennController,3,_Trial_,End,1702823415571,B,1,a3,NULL
1702823428,526b4d9396810ce9c3b4ff333c17305b,PennController,9,0,experiment,NULL,PennController,10,_Trial_,Start,1702823415572,B,15,a1,NULL
1702823428,526b4d9396810ce9c3b4ff333c17305b,PennController,9,0,experiment,NULL,Selector,answer,Selection,a1,1702823428475,B,15,a1,a1;a2;a3;a4
1702823428,526b4d9396810ce9c3b4ff333c17305b,PennController,9,0,experiment,NULL,PennController,10,_Trial_,End,1702823428475,B,15,a1,NULL
#
# Results on Sun, 17 Dec 2023 14:43:16 GMT
# USER AGENT: Mozilla/5.0 (Windows NT 10.0; Win64; x64) AppleWebKit/537.36 (KHTML, like Gecko) Chrome/120.0.0.0 Safari/537.36 Edg/120.0.0.0
# Design number was non-random = 10
#
# Columns below this comment are as follows:
# 1. Results reception time.
# 2. MD5 hash of participant's IP address.
# 3. Controller name.
# 4. Order number of item.
# 5. Inner element number.
# 6. Label.
# 7. Latin Square Group.
# 8. PennElementType.
# 9. PennElementName.
# 10. Parameter.
# 11. Value.
# 12. EventTime.
# 13. Comments.
1702824196,1d155ae95ed428811d6af1492ef9ae9c,PennController,0,0,instuction,NULL,PennController,0,_Trial_,Start,1702823799764,NULL
1702824196,1d155ae95ed428811d6af1492ef9ae9c,PennController,0,0,instuction,NULL,Scale,inputAgree,С инструкцией ознакомился(-лась)%2C согласие на обработку персональных данных даю.,checked,1702823833371,Status
1702824196,1d155ae95ed428811d6af1492ef9ae9c,PennController,0,0,instuction,NULL,Scale,inputAgree,Choice,С инструкцией ознакомился(-лась)%2C согласие на обработку персональных данных даю.,1702823831930,NULL
1702824196,1d155ae95ed428811d6af1492ef9ae9c,PennController,0,0,instuction,NULL,PennController,0,_Trial_,End,1702823833371,NULL
1702824196,1d155ae95ed428811d6af1492ef9ae9c,PennController,1,0,aboutinformant,NULL,PennController,1,_Trial_,Start,1702823833373,NULL
1702824196,1d155ae95ed428811d6af1492ef9ae9c,PennController,1,0,aboutinformant,NULL,Scale,inputGender,Мужчина,unchecked,1702823949256,Status
1702824196,1d155ae95ed428811d6af1492ef9ae9c,PennController,1,0,aboutinformant,NULL,Scale,inputGender,Женщина,checked,1702823949256,Status
1702824196,1d155ae95ed428811d6af1492ef9ae9c,PennController,1,0,aboutinformant,NULL,Scale,inputGender,Предпочитаю не указывать,unchecked,1702823949256,Status
1702824196,1d155ae95ed428811d6af1492ef9ae9c,PennController,1,0,aboutinformant,NULL,Scale,inputGender,Choice,Женщина,1702823836643,NULL
1702824196,1d155ae95ed428811d6af1492ef9ae9c,PennController,1,0,aboutinformant,NULL,TextInput,inputAge,Final,19,1702823949256,NULL
1702824196,1d155ae95ed428811d6af1492ef9ae9c,PennController,1,0,aboutinformant,NULL,TextInput,inputEducation,Final,высшее%2C 13,1702823949256,NULL
1702824196,1d155ae95ed428811d6af1492ef9ae9c,PennController,1,0,aboutinformant,NULL,PennController,1,_Trial_,End,1702823949256,NULL
# 13. Group.
# 14. Item.
# 15. Expected.
# 16. Comments.
1702824196,1d155ae95ed428811d6af1492ef9ae9c,PennController,2,0,experiment,NULL,PennController,3,_Trial_,Start,1702823949258,C,1,a3,NULL
1702824196,1d155ae95ed428811d6af1492ef9ae9c,PennController,2,0,experiment,NULL,Selector,answer,Selection,a2,1702823970535,C,1,a3,a1;a2;a3;a4
1702824196,1d155ae95ed428811d6af1492ef9ae9c,PennController,2,0,experiment,NULL,PennController,3,_Trial_,End,1702823970537,C,1,a3,NULL
1702824196,1d155ae95ed428811d6af1492ef9ae9c,PennController,10,0,experiment,NULL,PennController,11,_Trial_,Start,1702823970538,C,9,a1,NULL
1702824196,1d155ae95ed428811d6af1492ef9ae9c,PennController,10,0,experiment,NULL,Selector,answer,Selection,a1,1702823982256,C,9,a1,a1;a2;a3;a4
1702824196,1d155ae95ed428811d6af1492ef9ae9c,PennController,10,0,experiment,NULL,PennController,11,_Trial_,End,1702823982257,C,9,a1,NULL
1702824196,1d155ae95ed428811d6af1492ef9ae9c,PennController,9,0,experiment,NULL,PennController,10,_Trial_,Start,1702823982259,C,8,a4,NULL
1702824196,1d155ae95ed428811d6af1492ef9ae9c,PennController,9,0,experiment,NULL,Selector,answer,Selection,a4,1702823994035,C,8,a4,a1;a2;a3;a4
1702824196,1d155ae95ed428811d6af1492ef9ae9c,PennController,9,0,experiment,NULL,PennController,10,_Trial_,End,1702823994037,C,8,a4,NULL
1702824196,1d155ae95ed428811d6af1492ef9ae9c,PennController,16,0,experiment,NULL,PennController,17,_Trial_,Start,1702823994038,C,15,a1,NULL
1702824196,1d155ae95ed428811d6af1492ef9ae9c,PennController,16,0,experiment,NULL,Selector,answer,Selection,a3,1702824011950,C,15,a1,a1;a2;a3;a4
1702824196,1d155ae95ed428811d6af1492ef9ae9c,PennController,16,0,experiment,NULL,PennController,17,_Trial_,End,1702824011952,C,15,a1,NULL
1702824196,1d155ae95ed428811d6af1492ef9ae9c,PennController,14,0,experiment,NULL,PennController,15,_Trial_,Start,1702824011953,C,13,a3,NULL
1702824196,1d155ae95ed428811d6af1492ef9ae9c,PennController,14,0,experiment,NULL,Selector,answer,Selection,a3,1702824034431,C,13,a3,a1;a2;a3;a4
1702824196,1d155ae95ed428811d6af1492ef9ae9c,PennController,14,0,experiment,NULL,PennController,15,_Trial_,End,1702824034432,C,13,a3,NULL
1702824196,1d155ae95ed428811d6af1492ef9ae9c,PennController,4,0,experiment,NULL,PennController,5,_Trial_,Start,1702824034433,C,3,a3,NULL
1702824196,1d155ae95ed428811d6af1492ef9ae9c,PennController,4,0,experiment,NULL,Selector,answer,Selection,a3,1702824071199,C,3,a3,a1;a2;a3;a4
1702824196,1d155ae95ed428811d6af1492ef9ae9c,PennController,4,0,experiment,NULL,PennController,5,_Trial_,End,1702824071200,C,3,a3,NULL
1702824196,1d155ae95ed428811d6af1492ef9ae9c,PennController,6,0,experiment,NULL,PennController,7,_Trial_,Start,1702824071201,C,5,a1,NULL
1702824196,1d155ae95ed428811d6af1492ef9ae9c,PennController,6,0,experiment,NULL,Selector,answer,Selection,a2,1702824082091,C,5,a1,a1;a2;a3;a4
1702824196,1d155ae95ed428811d6af1492ef9ae9c,PennController,6,0,experiment,NULL,PennController,7,_Trial_,End,1702824082092,C,5,a1,NULL
1702824196,1d155ae95ed428811d6af1492ef9ae9c,PennController,5,0,experiment,NULL,PennController,6,_Trial_,Start,1702824082093,C,4,a2,NULL
1702824196,1d155ae95ed428811d6af1492ef9ae9c,PennController,5,0,experiment,NULL,Selector,answer,Selection,a2,1702824094976,C,4,a2,a1;a2;a3;a4
1702824196,1d155ae95ed428811d6af1492ef9ae9c,PennController,5,0,experiment,NULL,PennController,6,_Trial_,End,1702824094977,C,4,a2,NULL
1702824196,1d155ae95ed428811d6af1492ef9ae9c,PennController,3,0,experiment,NULL,PennController,4,_Trial_,Start,1702824094977,C,2,a1,NULL
1702824196,1d155ae95ed428811d6af1492ef9ae9c,PennController,3,0,experiment,NULL,Selector,answer,Selection,a2,1702824105536,C,2,a1,a1;a2;a3;a4
1702824196,1d155ae95ed428811d6af1492ef9ae9c,PennController,3,0,experiment,NULL,PennController,4,_Trial_,End,1702824105537,C,2,a1,NULL
1702824196,1d155ae95ed428811d6af1492ef9ae9c,PennController,7,0,experiment,NULL,PennController,8,_Trial_,Start,1702824105538,C,6,a2,NULL
1702824196,1d155ae95ed428811d6af1492ef9ae9c,PennController,7,0,experiment,NULL,Selector,answer,Selection,a2,1702824114372,C,6,a2,a1;a2;a3;a4
1702824196,1d155ae95ed428811d6af1492ef9ae9c,PennController,7,0,experiment,NULL,PennController,8,_Trial_,End,1702824114374,C,6,a2,NULL
1702824196,1d155ae95ed428811d6af1492ef9ae9c,PennController,8,0,experiment,NULL,PennController,9,_Trial_,Start,1702824114375,C,7,a1,NULL
1702824196,1d155ae95ed428811d6af1492ef9ae9c,PennController,8,0,experiment,NULL,Selector,answer,Selection,a1,1702824126474,C,7,a1,a1;a2;a3;a4
1702824196,1d155ae95ed428811d6af1492ef9ae9c,PennController,8,0,experiment,NULL,PennController,9,_Trial_,End,1702824126475,C,7,a1,NULL
1702824196,1d155ae95ed428811d6af1492ef9ae9c,PennController,15,0,experiment,NULL,PennController,16,_Trial_,Start,1702824126476,C,14,a4,NULL
1702824196,1d155ae95ed428811d6af1492ef9ae9c,PennController,15,0,experiment,NULL,Selector,answer,Selection,a4,1702824135677,C,14,a4,a1;a2;a3;a4
1702824196,1d155ae95ed428811d6af1492ef9ae9c,PennController,15,0,experiment,NULL,PennController,16,_Trial_,End,1702824135679,C,14,a4,NULL
1702824196,1d155ae95ed428811d6af1492ef9ae9c,PennController,11,0,experiment,NULL,PennController,12,_Trial_,Start,1702824135680,C,10,a1,NULL
1702824196,1d155ae95ed428811d6af1492ef9ae9c,PennController,11,0,experiment,NULL,Selector,answer,Selection,a1,1702824145690,C,10,a1,a1;a2;a3;a4
1702824196,1d155ae95ed428811d6af1492ef9ae9c,PennController,11,0,experiment,NULL,PennController,12,_Trial_,End,1702824145691,C,10,a1,NULL
1702824196,1d155ae95ed428811d6af1492ef9ae9c,PennController,19,0,experiment,NULL,PennController,20,_Trial_,Start,1702824145692,C,18,a1,NULL
1702824196,1d155ae95ed428811d6af1492ef9ae9c,PennController,19,0,experiment,NULL,Selector,answer,Selection,a1,1702824153949,C,18,a1,a1;a2;a3;a4
1702824196,1d155ae95ed428811d6af1492ef9ae9c,PennController,19,0,experiment,NULL,PennController,20,_Trial_,End,1702824153950,C,18,a1,NULL
1702824196,1d155ae95ed428811d6af1492ef9ae9c,PennController,18,0,experiment,NULL,PennController,19,_Trial_,Start,1702824153950,C,17,a3,NULL
1702824196,1d155ae95ed428811d6af1492ef9ae9c,PennController,18,0,experiment,NULL,Selector,answer,Selection,a3,1702824165693,C,17,a3,a1;a2;a3;a4
1702824196,1d155ae95ed428811d6af1492ef9ae9c,PennController,18,0,experiment,NULL,PennController,19,_Trial_,End,1702824165694,C,17,a3,NULL
1702824196,1d155ae95ed428811d6af1492ef9ae9c,PennController,13,0,experiment,NULL,PennController,14,_Trial_,Start,1702824165695,C,12,a4,NULL
1702824196,1d155ae95ed428811d6af1492ef9ae9c,PennController,13,0,experiment,NULL,Selector,answer,Selection,a4,1702824175527,C,12,a4,a1;a2;a3;a4
1702824196,1d155ae95ed428811d6af1492ef9ae9c,PennController,13,0,experiment,NULL,PennController,14,_Trial_,End,1702824175528,C,12,a4,NULL
1702824196,1d155ae95ed428811d6af1492ef9ae9c,PennController,12,0,experiment,NULL,PennController,13,_Trial_,Start,1702824175529,C,11,a3,NULL
1702824196,1d155ae95ed428811d6af1492ef9ae9c,PennController,12,0,experiment,NULL,Selector,answer,Selection,a3,1702824187634,C,11,a3,a1;a2;a3;a4
1702824196,1d155ae95ed428811d6af1492ef9ae9c,PennController,12,0,experiment,NULL,PennController,13,_Trial_,End,1702824187635,C,11,a3,NULL
1702824196,1d155ae95ed428811d6af1492ef9ae9c,PennController,17,0,experiment,NULL,PennController,18,_Trial_,Start,1702824187637,C,16,a1,NULL
1702824196,1d155ae95ed428811d6af1492ef9ae9c,PennController,17,0,experiment,NULL,Selector,answer,Selection,a1,1702824196302,C,16,a1,a1;a2;a3;a4
1702824196,1d155ae95ed428811d6af1492ef9ae9c,PennController,17,0,experiment,NULL,PennController,18,_Trial_,End,1702824196303,C,16,a1,NULL
#
# Results on Sun, 17 Dec 2023 14:52:03 GMT
# USER AGENT: Mozilla/5.0 (Linux; Android 10; K) AppleWebKit/537.36 (KHTML, like Gecko) Chrome/120.0.0.0 Mobile Safari/537.36
# Design number was non-random = 11
#
# Columns below this comment are as follows:
# 1. Results reception time.
# 2. MD5 hash of participant's IP address.
# 3. Controller name.
# 4. Order number of item.
# 5. Inner element number.
# 6. Label.
# 7. Latin Square Group.
# 8. PennElementType.
# 9. PennElementName.
# 10. Parameter.
# 11. Value.
# 12. EventTime.
# 13. Comments.
1702824723,ab55e7baa99509075b6aaa3133725ec9,PennController,0,0,instuction,NULL,PennController,0,_Trial_,Start,1702824241570,NULL
1702824723,ab55e7baa99509075b6aaa3133725ec9,PennController,0,0,instuction,NULL,Scale,inputAgree,С инструкцией ознакомился(-лась)%2C согласие на обработку персональных данных даю.,checked,1702824303888,Status
1702824723,ab55e7baa99509075b6aaa3133725ec9,PennController,0,0,instuction,NULL,Scale,inputAgree,Choice,С инструкцией ознакомился(-лась)%2C согласие на обработку персональных данных даю.,1702824299255,NULL
1702824723,ab55e7baa99509075b6aaa3133725ec9,PennController,0,0,instuction,NULL,PennController,0,_Trial_,End,1702824303891,NULL
1702824723,ab55e7baa99509075b6aaa3133725ec9,PennController,1,0,aboutinformant,NULL,PennController,1,_Trial_,Start,1702824303914,NULL
1702824723,ab55e7baa99509075b6aaa3133725ec9,PennController,1,0,aboutinformant,NULL,Scale,inputGender,Мужчина,checked,1702824375805,Status
1702824723,ab55e7baa99509075b6aaa3133725ec9,PennController,1,0,aboutinformant,NULL,Scale,inputGender,Женщина,unchecked,1702824375805,Status
1702824723,ab55e7baa99509075b6aaa3133725ec9,PennController,1,0,aboutinformant,NULL,Scale,inputGender,Предпочитаю не указывать,unchecked,1702824375805,Status
1702824723,ab55e7baa99509075b6aaa3133725ec9,PennController,1,0,aboutinformant,NULL,Scale,inputGender,Choice,Мужчина,1702824373666,NULL
1702824723,ab55e7baa99509075b6aaa3133725ec9,PennController,1,0,aboutinformant,NULL,TextInput,inputAge,Final,42,1702824375808,NULL
1702824723,ab55e7baa99509075b6aaa3133725ec9,PennController,1,0,aboutinformant,NULL,TextInput,inputEducation,Final,Высшее%2C 15,1702824375809,NULL
1702824723,ab55e7baa99509075b6aaa3133725ec9,PennController,1,0,aboutinformant,NULL,PennController,1,_Trial_,End,1702824375810,NULL
# 13. Group.
# 14. Item.
# 15. Expected.
# 16. Comments.
1702824723,ab55e7baa99509075b6aaa3133725ec9,PennController,14,0,experiment,NULL,PennController,15,_Trial_,Start,1702824375823,D,13,a3,NULL
1702824723,ab55e7baa99509075b6aaa3133725ec9,PennController,14,0,experiment,NULL,Selector,answer,Selection,a3,1702824406510,D,13,a3,a1;a2;a3;a4
1702824723,ab55e7baa99509075b6aaa3133725ec9,PennController,14,0,experiment,NULL,PennController,15,_Trial_,End,1702824406532,D,13,a3,NULL
1702824723,ab55e7baa99509075b6aaa3133725ec9,PennController,13,0,experiment,NULL,PennController,14,_Trial_,Start,1702824406546,D,12,a4,NULL
1702824723,ab55e7baa99509075b6aaa3133725ec9,PennController,13,0,experiment,NULL,Selector,answer,Selection,a4,1702824423218,D,12,a4,a1;a2;a3;a4
1702824723,ab55e7baa99509075b6aaa3133725ec9,PennController,13,0,experiment,NULL,PennController,14,_Trial_,End,1702824423230,D,12,a4,NULL
1702824723,ab55e7baa99509075b6aaa3133725ec9,PennController,15,0,experiment,NULL,PennController,16,_Trial_,Start,1702824423241,D,14,a4,NULL
1702824723,ab55e7baa99509075b6aaa3133725ec9,PennController,15,0,experiment,NULL,Selector,answer,Selection,a4,1702824436537,D,14,a4,a1;a2;a3;a4
1702824723,ab55e7baa99509075b6aaa3133725ec9,PennController,15,0,experiment,NULL,PennController,16,_Trial_,End,1702824436549,D,14,a4,NULL
1702824723,ab55e7baa99509075b6aaa3133725ec9,PennController,19,0,experiment,NULL,PennController,20,_Trial_,Start,1702824436560,D,18,a1,NULL
1702824723,ab55e7baa99509075b6aaa3133725ec9,PennController,19,0,experiment,NULL,Selector,answer,Selection,a1,1702824452551,D,18,a1,a1;a2;a3;a4
1702824723,ab55e7baa99509075b6aaa3133725ec9,PennController,19,0,experiment,NULL,PennController,20,_Trial_,End,1702824452562,D,18,a1,NULL
1702824723,ab55e7baa99509075b6aaa3133725ec9,PennController,10,0,experiment,NULL,PennController,11,_Trial_,Start,1702824452575,D,9,a1,NULL
1702824723,ab55e7baa99509075b6aaa3133725ec9,PennController,10,0,experiment,NULL,Selector,answer,Selection,a1,1702824467644,D,9,a1,a1;a2;a3;a4
1702824723,ab55e7baa99509075b6aaa3133725ec9,PennController,10,0,experiment,NULL,PennController,11,_Trial_,End,1702824467656,D,9,a1,NULL
1702824723,ab55e7baa99509075b6aaa3133725ec9,PennController,3,0,experiment,NULL,PennController,4,_Trial_,Start,1702824467667,D,2,a1,NULL
1702824723,ab55e7baa99509075b6aaa3133725ec9,PennController,3,0,experiment,NULL,Selector,answer,Selection,a2,1702824483195,D,2,a1,a1;a2;a3;a4
1702824723,ab55e7baa99509075b6aaa3133725ec9,PennController,3,0,experiment,NULL,PennController,4,_Trial_,End,1702824483208,D,2,a1,NULL
1702824723,ab55e7baa99509075b6aaa3133725ec9,PennController,5,0,experiment,NULL,PennController,6,_Trial_,Start,1702824483220,D,4,a2,NULL
1702824723,ab55e7baa99509075b6aaa3133725ec9,PennController,5,0,experiment,NULL,Selector,answer,Selection,a2,1702824508150,D,4,a2,a1;a2;a3;a4
1702824723,ab55e7baa99509075b6aaa3133725ec9,PennController,5,0,experiment,NULL,PennController,6,_Trial_,End,1702824508161,D,4,a2,NULL
1702824723,ab55e7baa99509075b6aaa3133725ec9,PennController,11,0,experiment,NULL,PennController,12,_Trial_,Start,1702824508175,D,10,a1,NULL
1702824723,ab55e7baa99509075b6aaa3133725ec9,PennController,11,0,experiment,NULL,Selector,answer,Selection,a1,1702824523851,D,10,a1,a1;a2;a3;a4
1702824723,ab55e7baa99509075b6aaa3133725ec9,PennController,11,0,experiment,NULL,PennController,12,_Trial_,End,1702824523862,D,10,a1,NULL
1702824723,ab55e7baa99509075b6aaa3133725ec9,PennController,12,0,experiment,NULL,PennController,13,_Trial_,Start,1702824523873,D,11,a3,NULL
1702824723,ab55e7baa99509075b6aaa3133725ec9,PennController,12,0,experiment,NULL,Selector,answer,Selection,a3,1702824537583,D,11,a3,a1;a2;a3;a4
1702824723,ab55e7baa99509075b6aaa3133725ec9,PennController,12,0,experiment,NULL,PennController,13,_Trial_,End,1702824537596,D,11,a3,NULL
1702824723,ab55e7baa99509075b6aaa3133725ec9,PennController,17,0,experiment,NULL,PennController,18,_Trial_,Start,1702824537605,D,16,a1,NULL
1702824723,ab55e7baa99509075b6aaa3133725ec9,PennController,17,0,experiment,NULL,Selector,answer,Selection,a1,1702824548949,D,16,a1,a1;a2;a3;a4
1702824723,ab55e7baa99509075b6aaa3133725ec9,PennController,17,0,experiment,NULL,PennController,18,_Trial_,End,1702824548960,D,16,a1,NULL
1702824723,ab55e7baa99509075b6aaa3133725ec9,PennController,7,0,experiment,NULL,PennController,8,_Trial_,Start,1702824548971,D,6,a2,NULL
1702824723,ab55e7baa99509075b6aaa3133725ec9,PennController,7,0,experiment,NULL,Selector,answer,Selection,a2,1702824567388,D,6,a2,a1;a2;a3;a4
1702824723,ab55e7baa99509075b6aaa3133725ec9,PennController,7,0,experiment,NULL,PennController,8,_Trial_,End,1702824567399,D,6,a2,NULL
1702824723,ab55e7baa99509075b6aaa3133725ec9,PennController,8,0,experiment,NULL,PennController,9,_Trial_,Start,1702824567408,D,7,a1,NULL
1702824723,ab55e7baa99509075b6aaa3133725ec9,PennController,8,0,experiment,NULL,Selector,answer,Selection,a1,1702824590046,D,7,a1,a1;a2;a3;a4
1702824723,ab55e7baa99509075b6aaa3133725ec9,PennController,8,0,experiment,NULL,PennController,9,_Trial_,End,1702824590058,D,7,a1,NULL
1702824723,ab55e7baa99509075b6aaa3133725ec9,PennController,6,0,experiment,NULL,PennController,7,_Trial_,Start,1702824590070,D,5,a1,NULL
1702824723,ab55e7baa99509075b6aaa3133725ec9,PennController,6,0,experiment,NULL,Selector,answer,Selection,a1,1702824632509,D,5,a1,a1;a2;a3;a4
1702824723,ab55e7baa99509075b6aaa3133725ec9,PennController,6,0,experiment,NULL,PennController,7,_Trial_,End,1702824632520,D,5,a1,NULL
1702824723,ab55e7baa99509075b6aaa3133725ec9,PennController,4,0,experiment,NULL,PennController,5,_Trial_,Start,1702824632531,D,3,a3,NULL
1702824723,ab55e7baa99509075b6aaa3133725ec9,PennController,4,0,experiment,NULL,Selector,answer,Selection,a3,1702824652174,D,3,a3,a1;a2;a3;a4
1702824723,ab55e7baa99509075b6aaa3133725ec9,PennController,4,0,experiment,NULL,PennController,5,_Trial_,End,1702824652185,D,3,a3,NULL
1702824723,ab55e7baa99509075b6aaa3133725ec9,PennController,2,0,experiment,NULL,PennController,3,_Trial_,Start,1702824652196,D,1,a3,NULL
1702824723,ab55e7baa99509075b6aaa3133725ec9,PennController,2,0,experiment,NULL,Selector,answer,Selection,a3,1702824680564,D,1,a3,a1;a2;a3;a4
1702824723,ab55e7baa99509075b6aaa3133725ec9,PennController,2,0,experiment,NULL,PennController,3,_Trial_,End,1702824680573,D,1,a3,NULL
1702824723,ab55e7baa99509075b6aaa3133725ec9,PennController,16,0,experiment,NULL,PennController,17,_Trial_,Start,1702824680583,D,15,a1,NULL
1702824723,ab55e7baa99509075b6aaa3133725ec9,PennController,16,0,experiment,NULL,Selector,answer,Selection,a1,1702824695277,D,15,a1,a1;a2;a3;a4
1702824723,ab55e7baa99509075b6aaa3133725ec9,PennController,16,0,experiment,NULL,PennController,17,_Trial_,End,1702824695290,D,15,a1,NULL
1702824723,ab55e7baa99509075b6aaa3133725ec9,PennController,9,0,experiment,NULL,PennController,10,_Trial_,Start,1702824695304,D,8,a4,NULL
1702824723,ab55e7baa99509075b6aaa3133725ec9,PennController,9,0,experiment,NULL,Selector,answer,Selection,a4,1702824706728,D,8,a4,a1;a2;a3;a4
1702824723,ab55e7baa99509075b6aaa3133725ec9,PennController,9,0,experiment,NULL,PennController,10,_Trial_,End,1702824706739,D,8,a4,NULL
1702824723,ab55e7baa99509075b6aaa3133725ec9,PennController,18,0,experiment,NULL,PennController,19,_Trial_,Start,1702824706750,D,17,a3,NULL
1702824723,ab55e7baa99509075b6aaa3133725ec9,PennController,18,0,experiment,NULL,Selector,answer,Selection,a3,1702824721800,D,17,a3,a1;a2;a3;a4
1702824723,ab55e7baa99509075b6aaa3133725ec9,PennController,18,0,experiment,NULL,PennController,19,_Trial_,End,1702824721813,D,17,a3,NULL
#
# Results on Sun, 17 Dec 2023 15:49:01 GMT
# USER AGENT: Mozilla/5.0 (Windows NT 10.0; Win64; x64) AppleWebKit/537.36 (KHTML, like Gecko) Chrome/118.0.5993.731 YaBrowser/23.11.1.731 Yowser/2.5 Safari/537.36
# Design number was non-random = 12
#
# Columns below this comment are as follows:
# 1. Results reception time.
# 2. MD5 hash of participant's IP address.
# 3. Controller name.
# 4. Order number of item.
# 5. Inner element number.
# 6. Label.
# 7. Latin Square Group.
# 8. PennElementType.
# 9. PennElementName.
# 10. Parameter.
# 11. Value.
# 12. EventTime.
# 13. Comments.
1702828141,19c2062ed4d25b2f8fe97d783a098edf,PennController,0,0,instuction,NULL,PennController,0,_Trial_,Start,1702827717876,NULL
1702828141,19c2062ed4d25b2f8fe97d783a098edf,PennController,0,0,instuction,NULL,Scale,inputAgree,С инструкцией ознакомился(-лась)%2C согласие на обработку персональных данных даю.,checked,1702827749239,Status
1702828141,19c2062ed4d25b2f8fe97d783a098edf,PennController,0,0,instuction,NULL,Scale,inputAgree,Choice,С инструкцией ознакомился(-лась)%2C согласие на обработку персональных данных даю.,1702827747398,NULL
1702828141,19c2062ed4d25b2f8fe97d783a098edf,PennController,0,0,instuction,NULL,PennController,0,_Trial_,End,1702827749240,NULL
1702828141,19c2062ed4d25b2f8fe97d783a098edf,PennController,1,0,aboutinformant,NULL,PennController,1,_Trial_,Start,1702827749242,NULL
1702828141,19c2062ed4d25b2f8fe97d783a098edf,PennController,1,0,aboutinformant,NULL,Scale,inputGender,Мужчина,unchecked,1702827782667,Status
1702828141,19c2062ed4d25b2f8fe97d783a098edf,PennController,1,0,aboutinformant,NULL,Scale,inputGender,Женщина,unchecked,1702827782667,Status
1702828141,19c2062ed4d25b2f8fe97d783a098edf,PennController,1,0,aboutinformant,NULL,Scale,inputGender,Предпочитаю не указывать,checked,1702827782667,Status
1702828141,19c2062ed4d25b2f8fe97d783a098edf,PennController,1,0,aboutinformant,NULL,Scale,inputGender,Choice,Предпочитаю не указывать,1702827751696,NULL
1702828141,19c2062ed4d25b2f8fe97d783a098edf,PennController,1,0,aboutinformant,NULL,TextInput,inputAge,Final,18,1702827782668,NULL
1702828141,19c2062ed4d25b2f8fe97d783a098edf,PennController,1,0,aboutinformant,NULL,TextInput,inputEducation,Final,неоконченное высшее%2C 12,1702827782668,NULL
1702828141,19c2062ed4d25b2f8fe97d783a098edf,PennController,1,0,aboutinformant,NULL,PennController,1,_Trial_,End,1702827782668,NULL
# 13. Group.
# 14. Item.
# 15. Expected.
# 16. Comments.
1702828141,19c2062ed4d25b2f8fe97d783a098edf,PennController,3,0,experiment,NULL,PennController,4,_Trial_,Start,1702827782669,A,2,a3,NULL
1702828141,19c2062ed4d25b2f8fe97d783a098edf,PennController,3,0,experiment,NULL,Selector,answer,Selection,a2,1702827802590,A,2,a3,a1;a2;a3;a4
1702828141,19c2062ed4d25b2f8fe97d783a098edf,PennController,3,0,experiment,NULL,PennController,4,_Trial_,End,1702827802592,A,2,a3,NULL
1702828141,19c2062ed4d25b2f8fe97d783a098edf,PennController,2,0,experiment,NULL,PennController,3,_Trial_,Start,1702827802593,A,1,a3,NULL
1702828141,19c2062ed4d25b2f8fe97d783a098edf,PennController,2,0,experiment,NULL,Selector,answer,Selection,a4,1702827841392,A,1,a3,a1;a2;a3;a4
1702828141,19c2062ed4d25b2f8fe97d783a098edf,PennController,2,0,experiment,NULL,PennController,3,_Trial_,End,1702827841392,A,1,a3,NULL
1702828141,19c2062ed4d25b2f8fe97d783a098edf,PennController,17,0,experiment,NULL,PennController,18,_Trial_,Start,1702827841393,A,16,a1,NULL
1702828141,19c2062ed4d25b2f8fe97d783a098edf,PennController,17,0,experiment,NULL,Selector,answer,Selection,a1,1702827865758,A,16,a1,a1;a2;a3;a4
1702828141,19c2062ed4d25b2f8fe97d783a098edf,PennController,17,0,experiment,NULL,PennController,18,_Trial_,End,1702827865759,A,16,a1,NULL
1702828141,19c2062ed4d25b2f8fe97d783a098edf,PennController,11,0,experiment,NULL,PennController,12,_Trial_,Start,1702827865759,A,10,a1,NULL
1702828141,19c2062ed4d25b2f8fe97d783a098edf,PennController,11,0,experiment,NULL,Selector,answer,Selection,a1,1702827881415,A,10,a1,a1;a2;a3;a4
1702828141,19c2062ed4d25b2f8fe97d783a098edf,PennController,11,0,experiment,NULL,PennController,12,_Trial_,End,1702827881416,A,10,a1,NULL
1702828141,19c2062ed4d25b2f8fe97d783a098edf,PennController,26,0,experiment,NULL,PennController,27,_Trial_,Start,1702827881417,A,13,a3,NULL
1702828141,19c2062ed4d25b2f8fe97d783a098edf,PennController,26,0,experiment,NULL,Selector,answer,Selection,a3,1702827901807,A,13,a3,a1;a2;a3;a4
1702828141,19c2062ed4d25b2f8fe97d783a098edf,PennController,26,0,experiment,NULL,PennController,27,_Trial_,End,1702827901808,A,13,a3,NULL
1702828141,19c2062ed4d25b2f8fe97d783a098edf,PennController,25,0,experiment,NULL,PennController,26,_Trial_,Start,1702827901809,A,12,a4,NULL
1702828141,19c2062ed4d25b2f8fe97d783a098edf,PennController,25,0,experiment,NULL,Selector,answer,Selection,a4,1702827915822,A,12,a4,a1;a2;a3;a4
1702828141,19c2062ed4d25b2f8fe97d783a098edf,PennController,25,0,experiment,NULL,PennController,26,_Trial_,End,1702827915822,A,12,a4,NULL
1702828141,19c2062ed4d25b2f8fe97d783a098edf,PennController,14,0,experiment,NULL,PennController,15,_Trial_,Start,1702827915823,A,13,a3,NULL
1702828141,19c2062ed4d25b2f8fe97d783a098edf,PennController,14,0,experiment,NULL,Selector,answer,Selection,a3,1702827932575,A,13,a3,a1;a2;a3;a4
1702828141,19c2062ed4d25b2f8fe97d783a098edf,PennController,14,0,experiment,NULL,PennController,15,_Trial_,End,1702827932576,A,13,a3,NULL
1702828141,19c2062ed4d25b2f8fe97d783a098edf,PennController,4,0,experiment,NULL,PennController,5,_Trial_,Start,1702827932577,A,3,a1,NULL
1702828141,19c2062ed4d25b2f8fe97d783a098edf,PennController,4,0,experiment,NULL,Selector,answer,Selection,a1,1702827965670,A,3,a1,a1;a2;a3;a4
1702828141,19c2062ed4d25b2f8fe97d783a098edf,PennController,4,0,experiment,NULL,PennController,5,_Trial_,End,1702827965671,A,3,a1,NULL
1702828141,19c2062ed4d25b2f8fe97d783a098edf,PennController,18,0,experiment,NULL,PennController,19,_Trial_,Start,1702827965672,A,17,a3,NULL
1702828141,19c2062ed4d25b2f8fe97d783a098edf,PennController,18,0,experiment,NULL,Selector,answer,Selection,a3,1702827979192,A,17,a3,a1;a2;a3;a4
1702828141,19c2062ed4d25b2f8fe97d783a098edf,PennController,18,0,experiment,NULL,PennController,19,_Trial_,End,1702827979192,A,17,a3,NULL
1702828141,19c2062ed4d25b2f8fe97d783a098edf,PennController,13,0,experiment,NULL,PennController,14,_Trial_,Start,1702827979193,A,12,a4,NULL
1702828141,19c2062ed4d25b2f8fe97d783a098edf,PennController,13,0,experiment,NULL,Selector,answer,Selection,a4,1702827990775,A,12,a4,a1;a2;a3;a4
1702828141,19c2062ed4d25b2f8fe97d783a098edf,PennController,13,0,experiment,NULL,PennController,14,_Trial_,End,1702827990776,A,12,a4,NULL
1702828141,19c2062ed4d25b2f8fe97d783a098edf,PennController,6,0,experiment,NULL,PennController,7,_Trial_,Start,1702827990776,A,5,a2,NULL
1702828141,19c2062ed4d25b2f8fe97d783a098edf,PennController,6,0,experiment,NULL,Selector,answer,Selection,a2,1702828004130,A,5,a2,a1;a2;a3;a4
1702828141,19c2062ed4d25b2f8fe97d783a098edf,PennController,6,0,experiment,NULL,PennController,7,_Trial_,End,1702828004130,A,5,a2,NULL
1702828141,19c2062ed4d25b2f8fe97d783a098edf,PennController,15,0,experiment,NULL,PennController,16,_Trial_,Start,1702828004131,A,14,a4,NULL
1702828141,19c2062ed4d25b2f8fe97d783a098edf,PennController,15,0,experiment,NULL,Selector,answer,Selection,a4,1702828013445,A,14,a4,a1;a2;a3;a4
1702828141,19c2062ed4d25b2f8fe97d783a098edf,PennController,15,0,experiment,NULL,PennController,16,_Trial_,End,1702828013446,A,14,a4,NULL
1702828141,19c2062ed4d25b2f8fe97d783a098edf,PennController,5,0,experiment,NULL,PennController,6,_Trial_,Start,1702828013446,A,4,a1,NULL
1702828141,19c2062ed4d25b2f8fe97d783a098edf,PennController,5,0,experiment,NULL,Selector,answer,Selection,a1,1702828022901,A,4,a1,a1;a2;a3;a4
1702828141,19c2062ed4d25b2f8fe97d783a098edf,PennController,5,0,experiment,NULL,PennController,6,_Trial_,End,1702828022902,A,4,a1,NULL
1702828141,19c2062ed4d25b2f8fe97d783a098edf,PennController,8,0,experiment,NULL,PennController,9,_Trial_,Start,1702828022902,A,7,a1,NULL
1702828141,19c2062ed4d25b2f8fe97d783a098edf,PennController,8,0,experiment,NULL,Selector,answer,Selection,a1,1702828033310,A,7,a1,a1;a2;a3;a4
1702828141,19c2062ed4d25b2f8fe97d783a098edf,PennController,8,0,experiment,NULL,PennController,9,_Trial_,End,1702828033311,A,7,a1,NULL
1702828141,19c2062ed4d25b2f8fe97d783a098edf,PennController,23,0,experiment,NULL,PennController,24,_Trial_,Start,1702828033311,A,10,a1,NULL
1702828141,19c2062ed4d25b2f8fe97d783a098edf,PennController,23,0,experiment,NULL,Selector,answer,Selection,a1,1702828042425,A,10,a1,a1;a2;a3;a4
1702828141,19c2062ed4d25b2f8fe97d783a098edf,PennController,23,0,experiment,NULL,PennController,24,_Trial_,End,1702828042425,A,10,a1,NULL
1702828141,19c2062ed4d25b2f8fe97d783a098edf,PennController,12,0,experiment,NULL,PennController,13,_Trial_,Start,1702828042426,A,11,a3,NULL
1702828141,19c2062ed4d25b2f8fe97d783a098edf,PennController,12,0,experiment,NULL,Selector,answer,Selection,a3,1702828053217,A,11,a3,a1;a2;a3;a4
1702828141,19c2062ed4d25b2f8fe97d783a098edf,PennController,12,0,experiment,NULL,PennController,13,_Trial_,End,1702828053217,A,11,a3,NULL
1702828141,19c2062ed4d25b2f8fe97d783a098edf,PennController,9,0,experiment,NULL,PennController,10,_Trial_,Start,1702828053218,A,8,a4,NULL
1702828141,19c2062ed4d25b2f8fe97d783a098edf,PennController,9,0,experiment,NULL,Selector,answer,Selection,a4,1702828067627,A,8,a4,a1;a2;a3;a4
1702828141,19c2062ed4d25b2f8fe97d783a098edf,PennController,9,0,experiment,NULL,PennController,10,_Trial_,End,1702828067628,A,8,a4,NULL
1702828141,19c2062ed4d25b2f8fe97d783a098edf,PennController,21,0,experiment,NULL,PennController,22,_Trial_,Start,1702828067628,A,8,a4,NULL
1702828141,19c2062ed4d25b2f8fe97d783a098edf,PennController,21,0,experiment,NULL,Selector,answer,Selection,a4,1702828074785,A,8,a4,a1;a2;a3;a4
1702828141,19c2062ed4d25b2f8fe97d783a098edf,PennController,21,0,experiment,NULL,PennController,22,_Trial_,End,1702828074786,A,8,a4,NULL
1702828141,19c2062ed4d25b2f8fe97d783a098edf,PennController,24,0,experiment,NULL,PennController,25,_Trial_,Start,1702828074787,A,11,a3,NULL
1702828141,19c2062ed4d25b2f8fe97d783a098edf,PennController,24,0,experiment,NULL,Selector,answer,Selection,a3,1702828084230,A,11,a3,a1;a2;a3;a4
1702828141,19c2062ed4d25b2f8fe97d783a098edf,PennController,24,0,experiment,NULL,PennController,25,_Trial_,End,1702828084231,A,11,a3,NULL
1702828141,19c2062ed4d25b2f8fe97d783a098edf,PennController,10,0,experiment,NULL,PennController,11,_Trial_,Start,1702828084231,A,9,a1,NULL
1702828141,19c2062ed4d25b2f8fe97d783a098edf,PennController,10,0,experiment,NULL,Selector,answer,Selection,a1,1702828096371,A,9,a1,a1;a2;a3;a4
1702828141,19c2062ed4d25b2f8fe97d783a098edf,PennController,10,0,experiment,NULL,PennController,11,_Trial_,End,1702828096371,A,9,a1,NULL
1702828141,19c2062ed4d25b2f8fe97d783a098edf,PennController,16,0,experiment,NULL,PennController,17,_Trial_,Start,1702828096372,A,15,a1,NULL
1702828141,19c2062ed4d25b2f8fe97d783a098edf,PennController,16,0,experiment,NULL,Selector,answer,Selection,a1,1702828105060,A,15,a1,a1;a2;a3;a4
1702828141,19c2062ed4d25b2f8fe97d783a098edf,PennController,16,0,experiment,NULL,PennController,17,_Trial_,End,1702828105061,A,15,a1,NULL
1702828141,19c2062ed4d25b2f8fe97d783a098edf,PennController,19,0,experiment,NULL,PennController,20,_Trial_,Start,1702828105062,A,18,a1,NULL
1702828141,19c2062ed4d25b2f8fe97d783a098edf,PennController,19,0,experiment,NULL,Selector,answer,Selection,a1,1702828114118,A,18,a1,a1;a2;a3;a4
1702828141,19c2062ed4d25b2f8fe97d783a098edf,PennController,19,0,experiment,NULL,PennController,20,_Trial_,End,1702828114119,A,18,a1,NULL
1702828141,19c2062ed4d25b2f8fe97d783a098edf,PennController,7,0,experiment,NULL,PennController,8,_Trial_,Start,1702828114119,A,6,a2,NULL
1702828141,19c2062ed4d25b2f8fe97d783a098edf,PennController,7,0,experiment,NULL,Selector,answer,Selection,a2,1702828123490,A,6,a2,a1;a2;a3;a4
1702828141,19c2062ed4d25b2f8fe97d783a098edf,PennController,7,0,experiment,NULL,PennController,8,_Trial_,End,1702828123490,A,6,a2,NULL
1702828141,19c2062ed4d25b2f8fe97d783a098edf,PennController,20,0,experiment,NULL,PennController,21,_Trial_,Start,1702828123491,A,7,a1,NULL
1702828141,19c2062ed4d25b2f8fe97d783a098edf,PennController,20,0,experiment,NULL,Selector,answer,Selection,a1,1702828134039,A,7,a1,a1;a2;a3;a4
1702828141,19c2062ed4d25b2f8fe97d783a098edf,PennController,20,0,experiment,NULL,PennController,21,_Trial_,End,1702828134040,A,7,a1,NULL
1702828141,19c2062ed4d25b2f8fe97d783a098edf,PennController,22,0,experiment,NULL,PennController,23,_Trial_,Start,1702828134040,A,9,a1,NULL
1702828141,19c2062ed4d25b2f8fe97d783a098edf,PennController,22,0,experiment,NULL,Selector,answer,Selection,a1,1702828142239,A,9,a1,a1;a2;a3;a4
1702828141,19c2062ed4d25b2f8fe97d783a098edf,PennController,22,0,experiment,NULL,PennController,23,_Trial_,End,1702828142240,A,9,a1,NULL
#
# Results on Sun, 17 Dec 2023 15:52:19 GMT
# USER AGENT: Mozilla/5.0 (Linux; Android 10; K) AppleWebKit/537.36 (KHTML, like Gecko) Chrome/119.0.0.0 Mobile Safari/537.36
# Design number was non-random = 13
#
# Columns below this comment are as follows:
# 1. Results reception time.
# 2. MD5 hash of participant's IP address.
# 3. Controller name.
# 4. Order number of item.
# 5. Inner element number.
# 6. Label.
# 7. Latin Square Group.
# 8. PennElementType.
# 9. PennElementName.
# 10. Parameter.
# 11. Value.
# 12. EventTime.
# 13. Comments.
1702828339,65a88ace2537f7413387ec5e1ed093c8,PennController,0,0,instuction,NULL,PennController,0,_Trial_,Start,1702828215335,NULL
1702828339,65a88ace2537f7413387ec5e1ed093c8,PennController,0,0,instuction,NULL,Scale,inputAgree,С инструкцией ознакомился(-лась)%2C согласие на обработку персональных данных даю.,checked,1702828225984,Status
1702828339,65a88ace2537f7413387ec5e1ed093c8,PennController,0,0,instuction,NULL,Scale,inputAgree,Choice,С инструкцией ознакомился(-лась)%2C согласие на обработку персональных данных даю.,1702828224568,NULL
1702828339,65a88ace2537f7413387ec5e1ed093c8,PennController,0,0,instuction,NULL,PennController,0,_Trial_,End,1702828225986,NULL
1702828339,65a88ace2537f7413387ec5e1ed093c8,PennController,1,0,aboutinformant,NULL,PennController,1,_Trial_,Start,1702828225996,NULL
1702828339,65a88ace2537f7413387ec5e1ed093c8,PennController,1,0,aboutinformant,NULL,Scale,inputGender,Мужчина,unchecked,1702828261693,Status
1702828339,65a88ace2537f7413387ec5e1ed093c8,PennController,1,0,aboutinformant,NULL,Scale,inputGender,Женщина,checked,1702828261693,Status
1702828339,65a88ace2537f7413387ec5e1ed093c8,PennController,1,0,aboutinformant,NULL,Scale,inputGender,Предпочитаю не указывать,unchecked,1702828261693,Status
1702828339,65a88ace2537f7413387ec5e1ed093c8,PennController,1,0,aboutinformant,NULL,Scale,inputGender,Choice,Женщина,1702828230337,NULL
1702828339,65a88ace2537f7413387ec5e1ed093c8,PennController,1,0,aboutinformant,NULL,TextInput,inputAge,Final,18,1702828261695,NULL
1702828339,65a88ace2537f7413387ec5e1ed093c8,PennController,1,0,aboutinformant,NULL,TextInput,inputEducation,Final,неоконченное высшее%2C 11%2C5,1702828261696,NULL
1702828339,65a88ace2537f7413387ec5e1ed093c8,PennController,1,0,aboutinformant,NULL,PennController,1,_Trial_,End,1702828261696,NULL
# 13. Group.
# 14. Item.
# 15. Expected.
# 16. Comments.
1702828339,65a88ace2537f7413387ec5e1ed093c8,PennController,8,0,experiment,NULL,PennController,9,_Trial_,Start,1702828261703,B,14,a4,NULL
1702828339,65a88ace2537f7413387ec5e1ed093c8,PennController,8,0,experiment,NULL,Selector,answer,Selection,a4,1702828277249,B,14,a4,a1;a2;a3;a4
1702828339,65a88ace2537f7413387ec5e1ed093c8,PennController,8,0,experiment,NULL,PennController,9,_Trial_,End,1702828277254,B,14,a4,NULL
1702828339,65a88ace2537f7413387ec5e1ed093c8,PennController,9,0,experiment,NULL,PennController,10,_Trial_,Start,1702828277256,B,15,a1,NULL
1702828339,65a88ace2537f7413387ec5e1ed093c8,PennController,9,0,experiment,NULL,Selector,answer,Selection,a1,1702828291263,B,15,a1,a1;a2;a3;a4
1702828339,65a88ace2537f7413387ec5e1ed093c8,PennController,9,0,experiment,NULL,PennController,10,_Trial_,End,1702828291269,B,15,a1,NULL
1702828339,65a88ace2537f7413387ec5e1ed093c8,PennController,7,0,experiment,NULL,PennController,8,_Trial_,Start,1702828291272,B,6,a2,NULL
1702828339,65a88ace2537f7413387ec5e1ed093c8,PennController,7,0,experiment,NULL,Selector,answer,Selection,a2,1702828301261,B,6,a2,a1;a2;a3;a4
1702828339,65a88ace2537f7413387ec5e1ed093c8,PennController,7,0,experiment,NULL,PennController,8,_Trial_,End,1702828301267,B,6,a2,NULL
1702828339,65a88ace2537f7413387ec5e1ed093c8,PennController,5,0,experiment,NULL,PennController,6,_Trial_,Start,1702828301271,B,4,a1,NULL
1702828339,65a88ace2537f7413387ec5e1ed093c8,PennController,5,0,experiment,NULL,Selector,answer,Selection,a2,1702828310453,B,4,a1,a1;a2;a3;a4
1702828339,65a88ace2537f7413387ec5e1ed093c8,PennController,5,0,experiment,NULL,PennController,6,_Trial_,End,1702828310459,B,4,a1,NULL
1702828339,65a88ace2537f7413387ec5e1ed093c8,PennController,3,0,experiment,NULL,PennController,4,_Trial_,Start,1702828310463,B,2,a3,NULL
1702828339,65a88ace2537f7413387ec5e1ed093c8,PennController,3,0,experiment,NULL,Selector,answer,Selection,a2,1702828320520,B,2,a3,a1;a2;a3;a4
1702828339,65a88ace2537f7413387ec5e1ed093c8,PennController,3,0,experiment,NULL,PennController,4,_Trial_,End,1702828320527,B,2,a3,NULL
1702828339,65a88ace2537f7413387ec5e1ed093c8,PennController,6,0,experiment,NULL,PennController,7,_Trial_,Start,1702828320532,B,5,a2,NULL
1702828339,65a88ace2537f7413387ec5e1ed093c8,PennController,6,0,experiment,NULL,Selector,answer,Selection,a2,1702828329663,B,5,a2,a1;a2;a3;a4
1702828339,65a88ace2537f7413387ec5e1ed093c8,PennController,6,0,experiment,NULL,PennController,7,_Trial_,End,1702828329670,B,5,a2,NULL
1702828339,65a88ace2537f7413387ec5e1ed093c8,PennController,10,0,experiment,NULL,PennController,11,_Trial_,Start,1702828329675,B,16,a1,NULL
1702828339,65a88ace2537f7413387ec5e1ed093c8,PennController,10,0,experiment,NULL,Selector,answer,Selection,a1,1702828339777,B,16,a1,a1;a2;a3;a4
1702828339,65a88ace2537f7413387ec5e1ed093c8,PennController,10,0,experiment,NULL,PennController,11,_Trial_,End,1702828339783,B,16,a1,NULL
1702828339,65a88ace2537f7413387ec5e1ed093c8,PennController,2,0,experiment,NULL,PennController,3,_Trial_,Start,1702828339787,B,1,a3,NULL
